File: forLance.dat
# wavelength[nm] Qabs--0.0nm[1] Qabs--9.0nm[1] Qabs--17.0nm[1] Qabs--26.0nm[1] Qabs--35.0nm[1] Qabs--CeO2 Solar Irradiance[W/m^2/nm] BB intensity@1300K[W/m^2/nm]
280 1.21997 1.59071 1.66928 1.63887 1.63489 1.63935 2.5361e-26 4.51508e-10
281.535 1.20179 1.59251 1.67331 1.64024 1.63545 1.66424 4.51991e-22 5.451e-10
283.069 1.18415 1.59392 1.67656 1.64073 1.63509 1.68707 7.85134e-20 6.56652e-10
284.604 1.1688 1.59574 1.67931 1.64047 1.63392 1.70796 3.58234e-17 7.89331e-10
286.138 1.15356 1.597 1.68127 1.63936 1.63187 1.72702 6.81048e-15 9.4681e-10
287.673 1.13843 1.59773 1.6825 1.63743 1.62897 1.74433 1.21069e-12 1.13334e-09
289.208 1.1234 1.59555 1.68266 1.63464 1.62484 1.7549 8.42804e-11 1.35385e-09
290.742 1.10849 1.59174 1.68223 1.63151 1.62007 1.76157 2.5738e-09 1.61399e-09
292.277 1.09369 1.58776 1.68144 1.62801 1.61481 1.76736 5.71952e-08 1.92032e-09
293.812 1.07901 1.58418 1.68017 1.62369 1.60869 1.77334 7.66654e-07 2.28032e-09
295.346 1.06445 1.58371 1.67608 1.61312 1.59647 1.78268 6.5446e-06 2.70261e-09
296.881 1.05072 1.58267 1.67049 1.60108 1.58261 1.78851 3.08315e-05 3.19706e-09
298.415 1.03807 1.58139 1.66374 1.58793 1.5674 1.79119 0.000137379 3.77494e-09
299.95 1.02563 1.57973 1.65593 1.57386 1.55111 1.79102 0.000448058 4.44912e-09
301.485 1.0134 1.57653 1.64842 1.56094 1.53557 1.78683 0.00130773 5.23425e-09
303.019 1.00137 1.57081 1.64304 1.55169 1.5231 1.77838 0.0037743 6.14701e-09
304.554 0.989523 1.56535 1.63747 1.54243 1.5107 1.76969 0.00673283 7.20633e-09
306.088 0.977867 1.55805 1.63167 1.53287 1.49775 1.75592 0.0104007 8.43369e-09
307.623 0.968971 1.551 1.62677 1.52354 1.48531 1.74002 0.0197842 9.85338e-09
309.158 0.96766 1.54791 1.62551 1.518 1.47682 1.72975 0.0227312 1.14929e-08
310.692 0.966803 1.54341 1.62965 1.52065 1.47611 1.72465 0.0395366 1.33831e-08
312.227 0.966379 1.5386 1.63358 1.52299 1.47529 1.7197 0.0521992 1.55591e-08
313.761 0.967179 1.53376 1.63744 1.52498 1.47428 1.71496 0.0622762 1.80601e-08
315.296 0.968656 1.52617 1.64425 1.52966 1.47612 1.7108 0.0684436 2.09301e-08
316.831 0.970564 1.51367 1.6554 1.53794 1.48168 1.70777 0.0889898 2.42188e-08
318.365 0.972129 1.49917 1.66616 1.54616 1.48703 1.70464 0.0989091 2.79816e-08
319.9 0.969959 1.48116 1.67652 1.55638 1.4939 1.69941 0.111601 3.22804e-08
321.435 0.967957 1.46099 1.68663 1.56594 1.50015 1.69311 0.128952 3.71847e-08
322.969 0.966119 1.43856 1.69655 1.57475 1.50571 1.68576 0.116444 4.27716e-08
324.504 0.964436 1.39653 1.71375 1.59116 1.51705 1.66978 0.154673 4.91274e-08
326.038 0.962903 1.34042 1.73133 1.60742 1.52677 1.64217 0.209673 5.63478e-08
327.573 0.961513 1.27399 1.74582 1.61934 1.53044 1.6006 0.210643 6.45394e-08
329.108 0.960262 1.22155 1.74858 1.62729 1.52801 1.55523 0.238494 7.38202e-08
330.642 0.958397 1.17903 1.74277 1.63546 1.52307 1.50731 0.237424 8.43212e-08
332.177 0.957878 1.13566 1.73177 1.6438 1.51427 1.45037 0.2456 9.61874e-08
333.711 0.959116 1.08852 1.70763 1.65652 1.50011 1.37117 0.23501 1.09579e-07
335.246 0.960467 1.03952 1.66934 1.67123 1.47827 1.27488 0.261901 1.24673e-07
336.781 0.961927 0.989751 1.61619 1.68657 1.44714 1.16477 0.219126 1.41665e-07
338.315 0.963495 0.955311 1.56278 1.70328 1.42368 1.07734 0.260953 1.60769e-07
339.85 0.965168 0.929523 1.51127 1.72012 1.40784 1.00611 0.291149 1.82223e-07
341.384 0.966945 0.904326 1.45569 1.73561 1.39242 0.935051 0.278713 2.06287e-07
342.919 0.968822 0.879719 1.39664 1.74867 1.37776 0.86468 0.307662 2.33245e-07
344.454 0.970799 0.855695 1.33481 1.75795 1.36413 0.795429 0.245235 2.63412e-07
345.988 0.972787 0.832266 1.27094 1.76182 1.35173 0.727655 0.291467 2.9713e-07
347.523 0.974719 0.809434 1.2058 1.75834 1.3406 0.661634 0.293489 3.34775e-07
349.058 0.97674 0.787149 1.13996 1.74526 1.33059 0.597571 0.289625 3.76758e-07
350.592 0.978849 0.765395 1.07404 1.72016 1.32138 0.5356 0.35311 4.23527e-07
352.127 0.981044 0.744154 1.00861 1.68067 1.31247 0.475798 0.322379 4.7557e-07
353.661 0.983323 0.723404 0.944146 1.62464 1.30302 0.41819 0.370521 5.33421e-07
355.196 0.985685 0.705467 0.888751 1.56102 1.29609 0.370433 0.386453 5.97661e-07
356.731 0.991278 0.696601 0.856368 1.51316 1.30466 0.344985 0.316649 6.6892e-07
358.265 0.998579 0.68894 0.82588 1.46057 1.31369 0.320542 0.26908 7.47883e-07
359.8 1.00598 0.681519 0.796567 1.40353 1.32229 0.297046 0.383485 8.35297e-07
361.334 1.01349 0.674327 0.7684 1.34284 1.3299 0.274445 0.338559 9.31968e-07
362.869 1.0211 0.667354 0.741344 1.27936 1.33585 0.252686 0.396905 1.03877e-06
364.404 1.02875 0.660605 0.715395 1.21403 1.33938 0.231719 0.402354 1.15665e-06
365.938 1.03609 0.654144 0.690668 1.14794 1.33968 0.211496 0.490886 1.28664e-06
367.473 1.04354 0.647875 0.666924 1.08164 1.33552 0.191974 0.480859 1.42983e-06
369.008 1.05108 0.641791 0.644116 1.01583 1.32568 0.173109 0.472982 1.58743e-06
370.542 1.05871 0.635883 0.6222 0.951142 1.30884 0.154862 0.468679 1.76072e-06
372.077 1.06645 0.630631 0.602424 0.891347 1.2869 0.138512 0.461811 1.9511e-06
373.611 1.07429 0.628182 0.589848 0.848883 1.27461 0.129243 0.386751 2.16005e-06
375.146 1.08222 0.625854 0.577818 0.808532 1.25587 0.120278 0.423793 2.38919e-06
376.681 1.09026 0.623642 0.566301 0.7703 1.23042 0.1116 0.477933 2.64025e-06
378.215 1.09841 0.621541 0.555265 0.734159 1.19827 0.103189 0.59702 2.91508e-06
379.75 1.10666 0.619547 0.544679 0.700054 1.15971 0.0950298 0.48502 3.21569e-06
381.284 1.11558 0.617979 0.534745 0.66811 1.11546 0.0871062 0.514156 3.5442e-06
382.819 1.12472 0.616581 0.525256 0.638082 1.0662 0.079404 0.33992 3.90292e-06
384.354 1.13468 0.615134 0.515871 0.609477 1.01243 0.0719098 0.420288 4.29428e-06
385.888 1.14639 0.613432 0.506221 0.581757 0.954649 0.0646111 0.453338 4.72093e-06
387.423 1.15828 0.611801 0.496893 0.555645 0.895012 0.0574962 0.468254 5.18567e-06
388.957 1.17037 0.610322 0.48812 0.531692 0.836323 0.0508381 0.497786 5.69149e-06
390.492 1.18265 0.610671 0.483843 0.518747 0.801666 0.0487976 0.590288 6.2416e-06
392.027 1.19512 0.611062 0.479712 0.506536 0.76769 0.0468105 0.581385 6.83941e-06
393.561 1.20779 0.611492 0.475719 0.495 0.734714 0.044874 0.293151 7.48856e-06
395.096 1.22068 0.611959 0.471854 0.484087 0.702973 0.0429854 0.608643 8.19293e-06
396.631 1.23377 0.612459 0.468107 0.473748 0.672628 0.0411423 0.386944 8.95665e-06
398.165 1.24562 0.613328 0.464981 0.464531 0.644539 0.0393425 0.67801 9.78411e-06
399.7 1.25584 0.614659 0.462593 0.456517 0.618885 0.0375837 0.833831 1.068e-05
401.234 1.2662 0.616045 0.460312 0.448936 0.594718 0.035864 0.885572 1.16492e-05
402.769 1.27669 0.617484 0.458131 0.441757 0.572018 0.0341813 0.889447 1.2697e-05
404.304 1.28733 0.618977 0.456047 0.43495 0.550743 0.0325339 0.892418 1.38291e-05
405.838 1.30469 0.624069 0.456346 0.430313 0.532529 0.0309201 0.861969 1.50513e-05
407.373 1.32239 0.628791 0.456726 0.426829 0.518988 0.0297883 0.86015 1.63699e-05
408.907 1.34031 0.633596 0.457341 0.423998 0.50747 0.0289412 0.941403 1.77915e-05
410.442 1.35846 0.638456 0.457991 0.421309 0.496595 0.0281107 0.852685 1.93232e-05
411.977 1.37685 0.643371 0.458677 0.418755 0.48633 0.0272962 0.965478 2.09723e-05
413.511 1.39548 0.648344 0.459396 0.416328 0.476641 0.0264969 0.925333 2.27469e-05
415.046 1.41436 0.653379 0.460149 0.414019 0.467495 0.0257125 0.957093 2.4655e-05
416.58 1.43386 0.658404 0.460834 0.411716 0.45874 0.0249423 0.9733 2.67056e-05
418.115 1.45409 0.663397 0.461417 0.40938 0.450314 0.0241859 0.92848 2.89078e-05
419.65 1.47465 0.668454 0.462028 0.407142 0.442341 0.0234427 0.912298 3.12714e-05
421.184 1.49553 0.673575 0.462666 0.404996 0.434792 0.0227125 1.00454 3.38066e-05
422.719 1.51677 0.678764 0.46333 0.402937 0.427639 0.0219947 0.973652 3.65242e-05
424.254 1.53835 0.684023 0.46402 0.40096 0.420857 0.0212887 0.969756 3.94356e-05
425.788 1.56031 0.689354 0.464735 0.39906 0.41442 0.0205945 0.972273 4.25529e-05
427.323 1.58264 0.694761 0.465476 0.397232 0.408307 0.0199114 0.93897 4.58884e-05
428.857 1.60557 0.700359 0.466307 0.395522 0.402535 0.0192391 0.887442 4.94556e-05
430.392 1.63015 0.706731 0.467565 0.394168 0.397289 0.0185773 0.676429 5.32681e-05
431.927 1.65517 0.713203 0.468849 0.392873 0.3923 0.0179256 1.03161 5.73407e-05
433.461 1.68064 0.719779 0.470159 0.391633 0.387551 0.0172838 0.956384 6.16886e-05
434.996 1.70336 0.727057 0.472268 0.391199 0.38379 0.0166514 1.00662 6.63278e-05
436.53 1.72564 0.734534 0.47455 0.390967 0.38041 0.0160277 1.1191 7.12751e-05
438.065 1.74813 0.742044 0.47702 0.391224 0.378191 0.0157405 0.991328 7.65482e-05
439.6 1.77082 0.749694 0.479549 0.391549 0.37615 0.0154748 1.04254 8.21653e-05
441.134 1.79372 0.757479 0.482121 0.391915 0.37423 0.0152131 1.09639 8.81459e-05
442.669 1.81682 0.765404 0.484738 0.392321 0.372425 0.0149554 1.17624 9.451e-05
444.204 1.84011 0.773476 0.4874 0.392766 0.370729 0.0147016 1.16296 0.000101279
445.738 1.86359 0.7817 0.490109 0.39325 0.369137 0.0144516 1.10871 0.000108474
447.273 1.88724 0.790082 0.492867 0.393773 0.367643 0.0142053 1.2302 0.000116119
448.807 1.91105 0.798628 0.495675 0.394335 0.366242 0.0139625 1.24115 0.000124238
450.342 1.93502 0.807345 0.498535 0.394935 0.36493 0.0137233 1.30503 0.000132855
451.877 1.95919 0.816286 0.501474 0.39559 0.363717 0.0134874 1.28904 0.000141997
453.411 1.9865 0.827522 0.505588 0.397043 0.36318 0.0132548 1.22142 0.000151691
454.946 2.01381 0.839015 0.509779 0.398539 0.36272 0.0130254 1.26591 0.000161966
456.48 2.04108 0.850776 0.514051 0.40008 0.362334 0.0127991 1.31481 0.00017285
458.015 2.06744 0.862921 0.518556 0.401807 0.362152 0.0125759 1.29447 0.000184376
459.55 2.08982 0.875813 0.523818 0.404201 0.362627 0.0123556 1.28216 0.000196573
461.084 2.11174 0.889 0.529191 0.40666 0.363181 0.0121383 1.32665 0.000209477
462.619 2.13315 0.902494 0.534679 0.409184 0.363811 0.0119237 1.34291 0.000223122
464.153 2.15399 0.916306 0.540287 0.411775 0.364516 0.0117119 1.3032 0.000237543
465.688 2.17419 0.930447 0.546019 0.414434 0.365297 0.0115028 1.31011 0.000252778
467.223 2.1937 0.944929 0.551881 0.417165 0.366152 0.0112963 1.27411 0.000268865
468.757 2.21245 0.959765 0.557876 0.419969 0.367081 0.0110923 1.32303 0.000285846
470.292 2.23038 0.974967 0.564012 0.422848 0.368084 0.0108909 1.2815 0.000303762
471.827 2.24741 0.990548 0.570292 0.425804 0.369159 0.0106918 1.3542 0.000322655
473.361 2.26348 1.00652 0.576722 0.42884 0.370309 0.0104951 1.32018 0.000342572
474.896 2.27851 1.0229 0.583309 0.431958 0.371531 0.0103007 1.3708 0.000363558
476.43 2.29166 1.03749 0.588905 0.434425 0.3723 0.0101069 1.3339 0.000385662
477.965 2.30382 1.05122 0.593868 0.436505 0.372919 0.00996901 1.38233 0.000408934
479.5 2.31504 1.06527 0.598941 0.438641 0.37359 0.00983787 1.37054 0.000433425
481.034 2.32526 1.07964 0.604122 0.440827 0.374301 0.00970829 1.38382 0.000459189
482.569 2.33445 1.09435 0.609414 0.443064 0.375052 0.00958021 1.38097 0.000486281
484.103 2.33966 1.10953 0.61525 0.445753 0.376208 0.00945365 1.34884 0.000514759
485.638 2.34209 1.12511 0.62145 0.448725 0.377613 0.00932853 1.1837 0.000544681
487.173 2.34329 1.14101 0.627781 0.451762 0.379067 0.00920486 1.24106 0.000576108
488.707 2.34323 1.15725 0.634249 0.454867 0.38057 0.00908262 1.27145 0.000609105
490.242 2.34189 1.17381 0.640858 0.458042 0.382123 0.00896176 1.38391 0.000643734
491.776 2.33925 1.19072 0.647611 0.461288 0.383727 0.00884224 1.29559 0.000680065
493.311 2.33529 1.20798 0.654515 0.464607 0.385382 0.00872407 1.36204 0.000718166
494.846 2.33 1.22559 0.661572 0.468003 0.387091 0.00860721 1.4109 0.000758109
496.38 2.32338 1.24357 0.668789 0.471476 0.388852 0.00849164 1.36393 0.000799967
497.915 2.31542 1.26191 0.67617 0.475029 0.390668 0.00837732 1.34522 0.000843816
499.45 2.30608 1.28072 0.683767 0.478692 0.392559 0.00826424 1.34119 0.000889735
500.984 2.29451 1.30138 0.692253 0.482864 0.394806 0.00815238 1.29964 0.000937804
502.519 2.28145 1.32247 0.700945 0.487136 0.397116 0.00804172 1.33054 0.000988106
504.053 2.2669 1.34399 0.709849 0.491509 0.399492 0.00793222 1.27309 0.00104073
505.588 2.25089 1.36595 0.718974 0.495988 0.401936 0.00782388 1.39243 0.00109575
507.123 2.23347 1.38835 0.728326 0.500576 0.404448 0.00771668 1.35066 0.00115328
508.657 2.21432 1.41114 0.737974 0.505337 0.407086 0.00761058 1.36306 0.00121339
510.192 2.19101 1.43399 0.748394 0.510749 0.41028 0.00750558 1.35461 0.00127619
511.726 2.1666 1.45715 0.759062 0.516287 0.413556 0.00740165 1.40232 0.00134177
513.261 2.14117 1.48062 0.769983 0.521957 0.416915 0.00729877 1.32055 0.00141024
514.796 2.11478 1.50437 0.781165 0.527761 0.42036 0.00719693 1.33069 0.0014817
516.33 2.0875 1.52841 0.792615 0.533704 0.423893 0.0070961 1.26893 0.00155624
517.865 2.0594 1.55269 0.804341 0.539791 0.427517 0.00699628 1.23904 0.001634
519.399 2.03055 1.57721 0.81635 0.546024 0.431232 0.00689744 1.26722 0.00171507
520.934 2.00103 1.60194 0.828649 0.55241 0.435043 0.00679957 1.34452 0.00179956
522.469 1.9709 1.62685 0.841247 0.558952 0.438952 0.00670265 1.33925 0.00188761
524.003 1.94397 1.64833 0.85218 0.564533 0.442202 0.00660666 1.39617 0.00197932
525.538 1.91689 1.66956 0.863076 0.570042 0.445364 0.00648162 1.36546 0.00207483
527.073 1.88951 1.69088 0.874175 0.575627 0.448539 0.00632739 1.19193 0.00217426
528.607 1.86185 1.71226 0.885519 0.581342 0.451797 0.00617458 1.38929 0.00227773
530.142 1.83397 1.73367 0.897113 0.587191 0.45514 0.00602317 1.37043 0.00238539
531.676 1.8059 1.75509 0.908963 0.593178 0.458569 0.00587313 1.41762 0.00249737
533.211 1.77769 1.77648 0.921074 0.599306 0.462087 0.00572444 1.27801 0.0026138
534.746 1.74878 1.79716 0.933637 0.605829 0.46593 0.00557708 1.36476 0.00273484
536.28 1.71943 1.81713 0.946598 0.612693 0.470049 0.00543103 1.39941 0.00286062
537.815 1.69019 1.83683 0.959813 0.61971 0.474265 0.00528626 1.37725 0.00299129
539.349 1.66107 1.85624 0.973285 0.626883 0.478583 0.00514277 1.33966 0.00312701
540.884 1.63211 1.8753 0.987017 0.634215 0.483003 0.00500052 1.26531 0.00326794
542.419 1.60334 1.89397 1.00101 0.641711 0.487528 0.0048595 1.36215 0.00341423
543.953 1.57477 1.9122 1.01527 0.649374 0.492161 0.00471968 1.39487 0.00356604
545.488 1.54644 1.92995 1.0298 0.657208 0.496904 0.00458106 1.3598 0.00372354
547.023 1.51698 1.94831 1.04552 0.665745 0.502108 0.00444361 1.37083 0.00388691
548.557 1.48753 1.96626 1.06176 0.674597 0.507515 0.00430731 1.35656 0.0040563
550.092 1.45842 1.98349 1.07829 0.683656 0.513055 0.00417214 1.36472 0.00423191
551.626 1.42965 1.99994 1.09514 0.692926 0.518731 0.00403808 1.38169 0.00441391
553.161 1.40124 2.01554 1.11229 0.702414 0.524546 0.00390513 1.35763 0.00460248
554.696 1.37322 2.03024 1.12975 0.712123 0.530504 0.00377326 1.38583 0.00479781
556.23 1.3456 2.04396 1.14751 0.722059 0.536608 0.00364246 1.3575 0.0050001
557.765 1.31838 2.05667 1.16558 0.732227 0.542863 0.00351271 1.35443 0.00520953
559.299 1.29158 2.06826 1.18394 0.742636 0.549277 0.003384 1.29548 0.00542631
560.834 1.26513 2.0776 1.20257 0.753481 0.556056 0.0032563 1.37577 0.00565063
562.369 1.23915 2.08569 1.22147 0.764566 0.562996 0.00312961 1.34115 0.00588271
563.903 1.21364 2.09238 1.24047 0.775857 0.570122 0.00305168 1.34916 0.00612275
565.438 1.18861 2.09756 1.25941 0.787258 0.577387 0.00304164 1.32345 0.00637097
566.972 1.16406 2.1014 1.27854 0.798894 0.584811 0.00303169 1.36496 0.00662758
568.507 1.13998 2.10388 1.29786 0.810766 0.592397 0.00302184 1.33887 0.0068928
570.042 1.11638 2.10498 1.31733 0.822879 0.600148 0.00301209 1.32221 0.00716687
571.576 1.09427 2.10442 1.33587 0.834559 0.607629 0.00300243 1.32273 0.00745
573.111 1.07261 2.10258 1.35449 0.846449 0.615259 0.00299287 1.35875 0.00774243
574.646 1.05137 2.09944 1.3732 0.858562 0.623049 0.0029834 1.3332 0.0080444
576.18 1.03056 2.09501 1.39199 0.870899 0.631001 0.00297402 1.31782 0.00835614
577.715 1.01017 2.08929 1.41082 0.883462 0.639119 0.00296473 1.31575 0.00867791
579.249 0.990194 2.0823 1.42967 0.896252 0.647406 0.00295553 1.32861 0.00900995
580.784 0.970633 2.07403 1.44852 0.90927 0.655865 0.00294642 1.35044 0.0093525
582.319 0.951478 2.06452 1.46735 0.922516 0.664499 0.0029374 1.37746 0.00970584
583.853 0.932725 2.05377 1.48611 0.935989 0.67331 0.00292845 1.3849 0.0100702
585.388 0.914397 2.04149 1.50468 0.949717 0.682356 0.0029196 1.36098 0.0104459
586.922 0.896495 2.02769 1.52299 0.963694 0.691639 0.00291083 1.36848 0.0108331
588.457 0.878984 2.01277 1.54111 0.977882 0.701104 0.00290214 1.25707 0.0112322
589.992 0.861857 1.99679 1.559 0.99228 0.710756 0.00289352 1.23099 0.0116434
591.526 0.845107 1.97977 1.57662 1.00688 0.720595 0.002885 1.30284 0.012067
593.061 0.828727 1.96178 1.59393 1.02169 0.730623 0.00287655 1.30825 0.0125032
594.595 0.812893 1.94302 1.61063 1.03647 0.740701 0.00286817 1.29343 0.0129525
596.13 0.798493 1.92445 1.62536 1.05014 0.75009 0.00285988 1.32656 0.013415
597.665 0.784389 1.90521 1.63972 1.06395 0.759641 0.00285166 1.3196 0.013891
599.199 0.770574 1.88534 1.65367 1.07791 0.769353 0.00284351 1.31715 0.0143809
600.734 0.757042 1.86487 1.66716 1.09199 0.779228 0.00283544 1.31642 0.0148849
602.269 0.74379 1.84387 1.68018 1.1062 0.789266 0.00282744 1.30024 0.0154034
603.803 0.73081 1.82235 1.69268 1.12052 0.799467 0.00281952 1.33929 0.0159367
605.338 0.718097 1.80039 1.70462 1.13494 0.809832 0.00281167 1.3396 0.0164851
606.872 0.705647 1.77817 1.71593 1.14926 0.820137 0.00275616 1.34237 0.0170488
608.407 0.693454 1.75576 1.72662 1.16346 0.830377 0.00264911 1.33513 0.0176283
609.942 0.681512 1.73301 1.73668 1.17775 0.840779 0.00254282 1.32402 0.0182239
611.476 0.670099 1.70859 1.74462 1.19187 0.851527 0.00243728 1.32652 0.0188358
613.011 0.658949 1.68393 1.75169 1.20597 0.862418 0.00233249 1.31777 0.0194644
614.545 0.648036 1.65918 1.75797 1.22004 0.873436 0.00222843 1.30399 0.0201101
616.08 0.637357 1.63436 1.76343 1.23406 0.884577 0.00212509 1.2893 0.0207732
617.615 0.626905 1.60951 1.76805 1.24801 0.895837 0.00202248 1.30415 0.0214541
619.149 0.616556 1.58443 1.77194 1.26209 0.907374 0.00192057 1.3293 0.022153
620.684 0.606162 1.55884 1.77521 1.27654 0.919399 0.00181937 1.334 0.0228704
622.219 0.595994 1.5333 1.77752 1.29086 0.931539 0.00171886 1.28626 0.0236066
623.753 0.586049 1.50786 1.77886 1.30502 0.943789 0.00161903 1.27614 0.0243619
625.288 0.57632 1.48253 1.7792 1.319 0.956138 0.00151987 1.26635 0.0251367
626.822 0.566801 1.45734 1.77855 1.33276 0.96858 0.00142138 1.29568 0.0259315
628.357 0.557489 1.43232 1.77691 1.34628 0.981105 0.00132355 1.24815 0.0267465
629.892 0.548377 1.4075 1.77426 1.35952 0.993702 0.00122638 1.26073 0.0275821
631.426 0.53946 1.38288 1.77061 1.37247 1.00636 0.00112985 1.25978 0.0284388
632.961 0.530734 1.3585 1.76596 1.38508 1.01907 0.00103395 1.30793 0.0293168
634.495 0.522194 1.33438 1.76034 1.39734 1.03182 0.000938687 1.29853 0.0302166
636.03 0.513826 1.31054 1.7538 1.40922 1.04459 0.000844046 1.27811 0.0311386
637.565 0.505619 1.287 1.74641 1.42074 1.05739 0.00075002 1.32537 0.0320832
639.099 0.497584 1.26376 1.73808 1.4318 1.07019 0.000656597 1.32106 0.0330507
640.634 0.489719 1.24081 1.72882 1.44238 1.08296 0.000563778 1.29671 0.0340415
642.168 0.482017 1.21817 1.71868 1.45244 1.09571 0.000471551 1.30177 0.0350561
643.703 0.47463 1.19626 1.70774 1.46165 1.10807 0.000379913 1.30906 0.0360949
645.238 0.467569 1.17511 1.69611 1.46995 1.11997 0.000288855 1.30813 0.0371582
646.772 0.460648 1.15434 1.68377 1.47759 1.13168 0.000210173 1.27561 0.0382465
648.307 0.453862 1.13407 1.67071 1.4843 1.14296 0.000211116 1.2505 0.0393602
649.842 0.447211 1.11412 1.65702 1.49043 1.1541 0.000212051 1.22887 0.0404997
651.376 0.440689 1.09449 1.64273 1.49593 1.16508 0.000212979 1.2878 0.0416654
652.911 0.434294 1.07518 1.62787 1.50081 1.17588 0.000213902 1.2915 0.0428578
654.445 0.428024 1.05619 1.61248 1.50504 1.18649 0.000214823 1.25456 0.0440773
655.98 0.421875 1.03753 1.59659 1.5086 1.19688 0.000215735 1.07569 0.0453242
657.515 0.415844 1.01918 1.58023 1.51148 1.20704 0.000216641 1.18983 0.0465991
659.049 0.409929 1.00116 1.56344 1.51367 1.21693 0.000217542 1.259 0.0479024
660.584 0.404127 0.983464 1.54625 1.51515 1.22655 0.00021844 1.26388 0.0492344
662.118 0.398534 0.966034 1.52815 1.51538 1.2356 0.00021933 1.25205 0.0505957
663.653 0.393063 0.948929 1.50967 1.51479 1.24425 0.000220219 1.26095 0.0519867
665.188 0.387695 0.932153 1.49093 1.51345 1.25253 0.000221098 1.28689 0.0534079
666.722 0.382429 0.915705 1.47196 1.51138 1.26041 0.000221975 1.27928 0.0548596
668.257 0.377398 0.899956 1.45313 1.50845 1.26754 0.000222845 1.2867 0.0563423
669.791 0.372539 0.884738 1.43435 1.50475 1.27405 0.000223711 1.28903 0.0578566
671.326 0.367768 0.869812 1.41547 1.50039 1.28013 0.000224574 1.2771 0.0594027
672.861 0.363081 0.855175 1.39649 1.49537 1.28576 0.00022543 1.27448 0.0609813
674.395 0.358477 0.840822 1.37746 1.4897 1.29093 0.000226282 1.27013 0.0625927
675.93 0.353954 0.826749 1.35838 1.4834 1.29562 0.000227127 1.27757 0.0642374
677.465 0.349511 0.812952 1.33929 1.47647 1.29982 0.000227969 1.27006 0.0659159
678.999 0.345146 0.799425 1.32021 1.46893 1.30351 0.000228807 1.26291 0.0676286
680.534 0.340856 0.786164 1.30115 1.46079 1.30668 0.00022964 1.26238 0.0693761
682.068 0.336641 0.773165 1.28214 1.45208 1.30932 0.000230469 1.26527 0.0711587
683.603 0.332499 0.760422 1.26319 1.44282 1.31142 0.000231294 1.24772 0.072977
685.138 0.328428 0.747933 1.24433 1.43302 1.31297 0.000232114 1.24155 0.0748314
686.672 0.324422 0.735689 1.22557 1.42272 1.31398 0.000232928 0.992507 0.0767224
688.207 0.320477 0.723686 1.20696 1.41199 1.31448 0.000233738 1.02084 0.0786504
689.741 0.316598 0.711921 1.18847 1.40079 1.3144 0.000234544 1.06203 0.0806161
691.276 0.312785 0.700389 1.17011 1.38913 1.31375 0.000235347 1.1288 0.0826197
692.811 0.308818 0.688519 1.15118 1.37682 1.31283 0.000236135 1.14593 0.0846618
694.345 0.304862 0.676738 1.13219 1.36397 1.31136 0.000236919 1.1394 0.086743
695.88 0.300977 0.665204 1.11339 1.35069 1.30924 0.000237698 1.1516 0.0888636
697.415 0.297161 0.653911 1.09477 1.337 1.30649 0.000238473 1.20722 0.0910242
698.949 0.293413 0.642856 1.07636 1.32292 1.30309 0.000239244 1.17332 0.0932252
700.484 0.289731 0.632032 1.05815 1.3085 1.29906 0.000240009 1.15649 0.0954671
702.018 0.286114 0.621435 1.04016 1.29375 1.2944 0.000240771 1.15012 0.0977505
703.553 0.28256 0.61106 1.02239 1.27872 1.28912 0.000241529 1.17312 0.100076
705.088 0.279068 0.600903 1.00486 1.26342 1.28325 0.000242284 1.19834 0.102443
706.622 0.275637 0.590957 0.987559 1.24788 1.27677 0.000243034 1.18939 0.104854
708.157 0.272265 0.58122 0.970506 1.23214 1.26972 0.000243781 1.18454 0.107308
709.691 0.268951 0.571686 0.9537 1.21622 1.26211 0.000244522 1.19312 0.109806
711.226 0.265694 0.56235 0.937144 1.20015 1.25396 0.000245262 1.19164 0.112348
712.761 0.262563 0.553264 0.920731 1.1836 1.24485 0.000245998 1.17518 0.114935
714.295 0.259504 0.544386 0.904561 1.16688 1.23512 0.000246728 1.17064 0.117567
715.83 0.256496 0.535694 0.888668 1.15011 1.22492 0.000247454 1.15276 0.120245
717.364 0.253997 0.528388 0.874979 1.13497 1.21481 0.000248177 0.982817 0.12297
718.899 0.251561 0.521288 0.861629 1.11996 1.20445 0.000248898 0.852427 0.125741
720.434 0.249159 0.514317 0.848498 1.105 1.19382 0.000249615 0.93855 0.12856
721.968 0.24679 0.507471 0.835584 1.0901 1.18296 0.000250326 1.12371 0.131427
723.503 0.244454 0.500749 0.822884 1.07527 1.17186 0.000251036 1.00244 0.134342
725.038 0.24215 0.494147 0.810397 1.06051 1.16055 0.00025174 0.948873 0.137305
726.572 0.239878 0.487664 0.798121 1.04584 1.14904 0.000252442 0.988383 0.140318
728.107 0.237636 0.481295 0.786054 1.03127 1.13736 0.000253141 0.950251 0.143381
729.641 0.235425 0.47504 0.774193 1.0168 1.12552 0.000253836 1.00273 0.146494
731.176 0.233245 0.468887 0.762508 1.0024 1.11349 0.00025453 0.990215 0.149658
732.711 0.231093 0.462814 0.750937 0.987985 1.10121 0.00025524 1.07907 0.152873
734.245 0.228971 0.456848 0.739569 0.973699 1.08881 0.000255944 1.12218 0.15614
735.78 0.226876 0.450987 0.7284 0.959547 1.0763 0.000256645 1.10176 0.159459
737.314 0.224813 0.445232 0.717427 0.945524 1.06369 0.000257343 1.10428 0.162831
738.849 0.222787 0.439587 0.706643 0.931616 1.05096 0.000258038 1.09047 0.166257
740.384 0.220774 0.434007 0.695995 0.917797 1.03813 0.000258731 1.11033 0.169736
741.918 0.218668 0.428226 0.685044 0.903592 1.02486 0.00025942 1.10835 0.173269
743.453 0.216592 0.422552 0.674297 0.889555 1.01155 0.000260105 1.13577 0.176857
744.987 0.214544 0.41698 0.663751 0.875689 0.99821 0.000260789 1.14041 0.1805
746.522 0.212525 0.41151 0.653403 0.861998 0.984855 0.000261469 1.13852 0.184199
748.057 0.210533 0.406138 0.643249 0.848485 0.971499 0.000262145 1.13209 0.187954
749.591 0.208569 0.400864 0.633286 0.835154 0.958156 0.000262819 1.12783 0.191766
751.126 0.206632 0.395683 0.623511 0.822005 0.944838 0.00026349 1.12292 0.195635
752.661 0.204721 0.390595 0.613921 0.809042 0.931557 0.000264158 1.12287 0.199561
754.195 0.202836 0.385598 0.604512 0.796265 0.918326 0.000264823 1.13468 0.203546
755.73 0.200977 0.380689 0.595281 0.783676 0.905153 0.000265485 1.12218 0.207589
757.264 0.199143 0.375866 0.586224 0.771275 0.89205 0.000266144 1.11945 0.211692
758.799 0.197333 0.371128 0.577339 0.759064 0.879026 0.000266802 1.09951 0.215854
760.334 0.195548 0.366473 0.568622 0.747042 0.866089 0.000267455 0.212504 0.220076
761.868 0.193786 0.3619 0.56007 0.735208 0.853248 0.000268107 0.570125 0.224358
763.403 0.192066 0.357426 0.551684 0.723535 0.840444 0.000268757 0.411258 0.228702
764.937 0.190373 0.353029 0.543445 0.712022 0.82771 0.000269402 0.62533 0.233107
766.472 0.188692 0.348684 0.535321 0.700651 0.815051 0.000270044 0.81922 0.237573
768.007 0.187032 0.344413 0.527354 0.689473 0.802521 0.000270687 1.02228 0.242103
769.541 0.185394 0.340217 0.519539 0.678486 0.790126 0.000271324 1.05088 0.246695
771.076 0.183778 0.336092 0.511874 0.667689 0.777871 0.000271959 1.07225 0.25135
772.611 0.182182 0.332038 0.504355 0.657079 0.765759 0.000272593 1.07989 0.256069
774.145 0.180607 0.328052 0.496979 0.646656 0.753794 0.000273223 1.08001 0.260853
775.68 0.179053 0.324135 0.489744 0.636417 0.74198 0.00027385 1.08187 0.265701
777.214 0.177518 0.320283 0.482646 0.62636 0.730319 0.000274475 1.07619 0.270614
778.749 0.176003 0.316496 0.475683 0.616483 0.718814 0.000275098 1.07907 0.275593
780.284 0.174508 0.312773 0.468851 0.606783 0.707466 0.000275718 1.06799 0.280638
781.818 0.173031 0.309111 0.462149 0.597259 0.696277 0.000276336 1.07045 0.285749
783.353 0.171573 0.305511 0.455574 0.587912 0.685254 0.00027695 1.06473 0.290927
784.887 0.170133 0.301971 0.449124 0.578736 0.674395 0.000277562 1.06437 0.296173
786.422 0.168711 0.298489 0.442795 0.569728 0.663698 0.000278171 1.06028 0.301487
787.957 0.167308 0.295064 0.436584 0.560886 0.653163 0.000278778 1.04047 0.306868
789.491 0.165965 0.291792 0.430645 0.552405 0.643003 0.000279383 1.02047 0.312319
791.026 0.164696 0.2887 0.425024 0.544346 0.633288 0.000279986 1.01765 0.317838
792.56 0.163442 0.285654 0.419502 0.536431 0.623723 0.000280586 1.00453 0.323427
794.095 0.162202 0.282655 0.414076 0.528655 0.614309 0.000281183 1.00977 0.329086
795.63 0.160976 0.279701 0.408745 0.521019 0.605045 0.000281779 0.996053 0.334815
797.164 0.159764 0.276791 0.403507 0.513518 0.59593 0.000282372 1.00879 0.340615
798.699 0.158566 0.273925 0.39836 0.506151 0.586961 0.000282963 1.01073 0.346487
800.234 0.157381 0.271101 0.393302 0.498915 0.578139 0.000283551 0.991203 0.352429
801.768 0.15621 0.268319 0.388331 0.491808 0.569462 0.000284138 1.00079 0.358444
803.303 0.155052 0.265578 0.383445 0.484828 0.560928 0.000284722 0.986404 0.364532
804.837 0.153906 0.262877 0.378643 0.477972 0.552537 0.000285305 0.976249 0.370692
806.372 0.152773 0.260215 0.373924 0.471238 0.544286 0.000285884 1.00833 0.376925
807.907 0.151653 0.257593 0.369284 0.464625 0.536174 0.000286463 0.998754 0.383232
809.441 0.150545 0.255008 0.364723 0.458129 0.5282 0.000287037 0.974126 0.389613
810.976 0.149449 0.252461 0.36024 0.451748 0.520361 0.000287611 0.972782 0.396068
812.51 0.148365 0.24995 0.355832 0.445481 0.512656 0.000288183 0.940418 0.402599
814.045 0.147291 0.247484 0.351525 0.439374 0.505152 0.000288753 0.83647 0.409204
815.58 0.146229 0.245061 0.34731 0.433409 0.497822 0.000289319 0.795905 0.415885
817.114 0.145178 0.242671 0.343164 0.427547 0.490615 0.000289885 0.786772 0.422641
818.649 0.144138 0.240315 0.339085 0.421786 0.48353 0.000290448 0.811948 0.429474
820.183 0.143109 0.237995 0.335082 0.41614 0.476588 0.000291005 0.821729 0.436384
821.718 0.142092 0.235711 0.331157 0.410616 0.469796 0.000291551 0.892681 0.443371
823.253 0.141085 0.233459 0.327295 0.405186 0.463119 0.000292095 0.686519 0.450434
824.787 0.140088 0.231238 0.323494 0.399849 0.456555 0.000292638 0.890857 0.457576
826.322 0.139102 0.229047 0.319755 0.394602 0.450102 0.000293178 0.880264 0.464796
827.857 0.138127 0.226886 0.316074 0.389445 0.443759 0.000293718 0.806356 0.472094
829.391 0.137162 0.224754 0.312452 0.384375 0.437523 0.000294253 0.856637 0.479471
830.926 0.136207 0.22265 0.308887 0.379392 0.431394 0.000294788 0.856114 0.486926
832.46 0.135261 0.220575 0.305378 0.374492 0.425369 0.000295321 0.855672 0.494462
833.995 0.134326 0.218528 0.301923 0.369676 0.419447 0.000295851 0.866181 0.502076
835.53 0.1334 0.216508 0.298523 0.36494 0.413626 0.00029638 0.914436 0.509771
837.064 0.132484 0.214515 0.295176 0.360284 0.407905 0.000296907 0.934347 0.517547
838.599 0.131483 0.212352 0.291576 0.355315 0.401836 0.000297432 0.927036 0.525403
840.133 0.130501 0.210203 0.287975 0.350325 0.395723 0.000297955 0.940575 0.53334
841.668 0.129531 0.208085 0.284436 0.345428 0.389727 0.000298477 0.928143 0.541358
843.203 0.128571 0.205999 0.280958 0.340623 0.383844 0.000298996 0.92819 0.549458
844.737 0.127623 0.203943 0.27754 0.335907 0.378074 0.000299513 0.934925 0.55764
846.272 0.126685 0.201917 0.274181 0.331278 0.372413 0.000300029 0.937673 0.565903
847.807 0.125758 0.19992 0.270878 0.326735 0.366859 0.000300542 0.919978 0.57425
849.341 0.124841 0.197953 0.267631 0.322276 0.361411 0.000301055 0.885315 0.582679
850.876 0.123935 0.196013 0.264439 0.317898 0.356067 0.000301564 0.895153 0.591191
852.41 0.123039 0.194102 0.261301 0.3136 0.350823 0.000302073 0.89777 0.599786
853.945 0.122152 0.192218 0.258215 0.309381 0.345679 0.000302579 0.795802 0.608465
855.48 0.121276 0.19036 0.25518 0.305239 0.340631 0.000303084 0.874301 0.617228
857.014 0.120409 0.188529 0.252196 0.301172 0.335679 0.000303588 0.920595 0.626075
858.549 0.119552 0.186724 0.249262 0.297178 0.33082 0.000304089 0.920869 0.635006
860.083 0.118705 0.184936 0.246351 0.293215 0.325995 0.00030461 0.917543 0.644022
861.618 0.117866 0.183169 0.243482 0.289312 0.321245 0.000305135 0.920924 0.653123
863.153 0.117267 0.181877 0.24133 0.28632 0.317535 0.000305658 0.926321 0.662308
864.687 0.116684 0.180632 0.239264 0.283452 0.313981 0.000306181 0.899464 0.671579
866.222 0.116096 0.179388 0.237212 0.280616 0.310476 0.000306701 0.802539 0.680936
867.756 0.115513 0.178156 0.235185 0.27782 0.307024 0.00030722 0.881478 0.690378
869.291 0.114933 0.176937 0.233184 0.275064 0.303625 0.000307738 0.887413 0.699906
870.826 0.114358 0.17573 0.231207 0.272345 0.300277 0.000308254 0.88891 0.709521
872.36 0.113788 0.174536 0.229254 0.269665 0.296979 0.000308769 0.895671 0.719222
873.895 0.113222 0.173353 0.227326 0.267021 0.29373 0.000309281 0.876137 0.729009
875.43 0.11266 0.172182 0.22542 0.264414 0.29053 0.000309793 0.872439 0.738883
876.964 0.112102 0.171023 0.223538 0.261843 0.287377 0.000310303 0.889364 0.748845
878.499 0.111548 0.169875 0.221679 0.259307 0.284272 0.000310811 0.878773 0.758893
880.033 0.110999 0.168739 0.219842 0.256806 0.281212 0.00031132 0.873382 0.769029
881.568 0.110453 0.167614 0.218027 0.254339 0.278197 0.000311824 0.858262 0.779252
883.103 0.109912 0.1665 0.216234 0.251905 0.275227 0.000312329 0.865314 0.789563
884.637 0.109374 0.165397 0.214462 0.249505 0.2723 0.000312832 0.875306 0.799962
886.172 0.108841 0.164305 0.212712 0.247136 0.269416 0.000313333 0.845638 0.810449
887.706 0.108256 0.16312 0.21083 0.244614 0.266366 0.000313833 0.855761 0.821025
889.241 0.107541 0.161691 0.208602 0.241671 0.262854 0.000314332 0.868089 0.831688
890.776 0.106865 0.160318 0.206444 0.238806 0.259423 0.000314829 0.862153 0.84244
892.31 0.106196 0.158962 0.204317 0.235989 0.256053 0.000315325 0.836716 0.853281
893.845 0.105533 0.157624 0.202223 0.233218 0.252741 0.000315819 0.797231 0.864211
895.379 0.104877 0.156302 0.200159 0.230493 0.249488 0.000316313 0.741758 0.875229
896.914 0.104227 0.154997 0.198126 0.227812 0.246292 0.000316804 0.630793 0.886337
898.449 0.103583 0.153708 0.196123 0.225175 0.243152 0.000317295 0.601031 0.897534
899.983 0.102945 0.152435 0.194149 0.222581 0.240066 0.000317784 0.691293 0.90882
901.518 0.102314 0.151178 0.192203 0.220029 0.237033 0.000318273 0.594447 0.920195
903.053 0.101689 0.149936 0.190286 0.217518 0.234053 0.000318759 0.652385 0.93166
904.587 0.10107 0.148709 0.188396 0.215047 0.231124 0.000319244 0.773794 0.943215
906.122 0.100456 0.147497 0.186534 0.212616 0.228246 0.000319729 0.709593 0.954859
907.656 0.0998487 0.146304 0.184706 0.210237 0.225434 0.000320199 0.606587 0.966594
909.191 0.099247 0.145128 0.182913 0.207909 0.222688 0.000320658 0.645065 0.978418
910.726 0.0986531 0.143969 0.18115 0.205623 0.219995 0.000321114 0.61475 0.990332
912.26 0.0980721 0.142838 0.17943 0.203396 0.217372 0.00032157 0.630503 1.00234
913.795 0.0974964 0.141721 0.177734 0.201203 0.214793 0.000322025 0.587741 1.01443
915.329 0.0969241 0.140614 0.17606 0.199041 0.212254 0.000322478 0.604365 1.02661
916.864 0.0963548 0.139517 0.174405 0.196911 0.209754 0.000322931 0.664126 1.03889
918.399 0.0957907 0.138433 0.172773 0.194812 0.207296 0.000323381 0.610135 1.05125
919.933 0.0952318 0.137362 0.171164 0.192745 0.204877 0.00032383 0.696239 1.06371
921.468 0.0946781 0.136303 0.169576 0.190709 0.202497 0.000324278 0.695323 1.07626
923.003 0.0941294 0.135256 0.168009 0.188704 0.200156 0.000324724 0.696927 1.08889
924.537 0.0935857 0.134221 0.166463 0.186728 0.197852 0.00032517 0.670607 1.10162
926.072 0.0930469 0.133198 0.164939 0.184782 0.195585 0.000325614 0.664351 1.11444
927.606 0.092513 0.132187 0.163434 0.182865 0.193354 0.000326057 0.625753 1.12734
929.141 0.091984 0.131187 0.161949 0.180976 0.191159 0.000326498 0.502256 1.14034
930.676 0.0914596 0.130198 0.160484 0.179115 0.188998 0.000326939 0.39234 1.15343
932.21 0.0909401 0.129221 0.159039 0.177281 0.186871 0.000327378 0.273505 1.16661
933.745 0.0904251 0.128254 0.157612 0.175473 0.184777 0.000327815 0.161191 1.17988
935.279 0.0899371 0.127339 0.156259 0.173757 0.182787 0.000328252 0.213366 1.19324
936.814 0.0894891 0.126496 0.15501 0.172168 0.18094 0.000328687 0.154184 1.20669
938.349 0.0890446 0.125663 0.153776 0.170601 0.179118 0.000329122 0.254565 1.22023
939.883 0.0886035 0.124837 0.152556 0.169053 0.177323 0.000329555 0.436147 1.23386
941.418 0.0881755 0.124031 0.151362 0.167536 0.175562 0.000329987 0.363751 1.24759
942.952 0.0877516 0.123233 0.150182 0.16604 0.173826 0.000330417 0.268549 1.2614
944.487 0.0873309 0.122444 0.149016 0.164563 0.172115 0.000330847 0.307579 1.2753
946.022 0.0869134 0.121662 0.147864 0.163105 0.170428 0.000331275 0.18769 1.2893
947.556 0.086499 0.120888 0.146725 0.161666 0.168765 0.000331702 0.299483 1.30338
949.091 0.0860877 0.120121 0.145599 0.160246 0.167124 0.000332128 0.435531 1.31756
950.626 0.0856796 0.119361 0.144485 0.158842 0.165505 0.000332555 0.337224 1.33182
952.16 0.0852744 0.118608 0.143382 0.157454 0.163906 0.000332983 0.265428 1.34618
953.695 0.0848722 0.117862 0.142291 0.156084 0.162328 0.00033341 0.376846 1.36062
955.229 0.0844731 0.117123 0.141213 0.154731 0.160773 0.000333836 0.319269 1.37516
956.764 0.0840768 0.116391 0.140147 0.153396 0.159239 0.000334261 0.268667 1.38978
958.299 0.0836836 0.115666 0.139093 0.152077 0.157725 0.000334685 0.410169 1.4045
959.833 0.083288 0.114939 0.138039 0.150761 0.156218 0.000335108 0.389526 1.4193
961.368 0.0828911 0.114211 0.136986 0.149449 0.154719 0.000335529 0.428127 1.4342
962.902 0.0824973 0.113491 0.135946 0.148155 0.15324 0.00033595 0.470072 1.44918
964.437 0.0821063 0.112777 0.134917 0.146876 0.151781 0.000336369 0.450893 1.46426
965.972 0.0817213 0.112074 0.133903 0.145617 0.150346 0.000336788 0.473796 1.47942
967.506 0.081344 0.111383 0.132906 0.144379 0.148934 0.000337205 0.544142 1.49467
969.041 0.0809694 0.110698 0.13192 0.143156 0.147541 0.000337622 0.642842 1.51001
970.575 0.0805976 0.11002 0.130945 0.141948 0.146167 0.000338037 0.639303 1.52545
972.11 0.0802285 0.109348 0.129981 0.140755 0.144811 0.000338451 0.63798 1.54097
973.645 0.079862 0.108682 0.129028 0.139577 0.143474 0.000338864 0.552043 1.55657
975.179 0.0794983 0.108022 0.128084 0.138414 0.142154 0.000339276 0.552376 1.57227
976.714 0.0791372 0.107369 0.127152 0.137265 0.140852 0.000339688 0.583069 1.58806
978.249 0.0787786 0.106722 0.126229 0.136129 0.139568 0.000340098 0.584356 1.60393
979.783 0.0784227 0.10608 0.125316 0.135008 0.1383 0.000340507 0.576143 1.6199
981.318 0.0780693 0.105445 0.124413 0.1339 0.137049 0.000340914 0.664365 1.63595
982.852 0.0777185 0.104815 0.12352 0.132805 0.135814 0.000341322 0.632379 1.65209
984.387 0.0773712 0.104193 0.122639 0.131727 0.134599 0.000341728 0.675269 1.66832
985.922 0.0770269 0.103577 0.121768 0.130662 0.1334 0.000342133 0.700968 1.68463
987.456 0.076685 0.102967 0.120907 0.12961 0.132217 0.000342537 0.692928 1.70103
988.991 0.0763455 0.102362 0.120054 0.128571 0.131049 0.00034294 0.703788 1.71752
990.525 0.0760085 0.101777 0.119241 0.127587 0.129952 0.000368556 0.698886 1.7341
992.06 0.0756592 0.101184 0.118426 0.12661 0.128869 0.000395169 0.705206 1.75076
993.595 0.0753096 0.100593 0.117616 0.125641 0.127797 0.00042169 0.702562 1.76751
995.129 0.0749625 0.100008 0.116815 0.124684 0.126738 0.000448119 0.706389 1.78435
996.664 0.074618 0.0994276 0.116022 0.123738 0.125693 0.000474457 0.69842 1.80128
998.198 0.0742759 0.0988526 0.115238 0.122803 0.124662 0.000500705 0.694758 1.81829
999.733 0.0739364 0.0982828 0.114462 0.121879 0.123643 0.000526863 0.69238 1.83538
1001.27 0.0735993 0.0977181 0.113694 0.120965 0.122637 0.000552931 0.696074 1.85256
1002.8 0.0732646 0.0971585 0.112934 0.120063 0.121644 0.000578911 0.689698 1.86983
1004.34 0.0729323 0.0966039 0.112182 0.119171 0.120664 0.000604801 0.667365 1.88718
1005.87 0.0726024 0.0960542 0.111438 0.118289 0.119695 0.000630605 0.666736 1.90462
1007.41 0.0722749 0.0955094 0.110701 0.117417 0.118739 0.000656321 0.684403 1.92215
1008.94 0.0719514 0.0949722 0.109976 0.116559 0.117799 0.000681949 0.677814 1.93975
1010.48 0.0716304 0.0944401 0.109258 0.115712 0.116871 0.000707492 0.678562 1.95745
1012.01 0.0713117 0.0939127 0.108548 0.114874 0.115954 0.000732949 0.676659 1.97522
1013.54 0.0709952 0.0933899 0.107845 0.114046 0.115049 0.00075832 0.67715 1.99308
1015.08 0.0706809 0.0928716 0.107149 0.113226 0.114155 0.000783606 0.666998 2.01103
1016.61 0.0703622 0.0923503 0.106453 0.11241 0.113265 0.000808808 0.665224 2.02905
1018.15 0.0700297 0.0918007 0.105718 0.111547 0.112321 0.000793041 0.669092 2.04717
1019.68 0.0696997 0.0912531 0.104985 0.110685 0.111378 0.000770863 0.655351 2.06536
1021.22 0.069372 0.0907101 0.10426 0.109833 0.110444 0.000748764 0.658617 2.08364
1022.75 0.0690468 0.0901718 0.103541 0.108989 0.109522 0.000726747 0.653637 2.102
1024.29 0.0687239 0.0896381 0.102829 0.108154 0.108609 0.00070481 0.652635 2.12044
1025.82 0.0684033 0.0891089 0.102123 0.107328 0.107707 0.000682951 0.656432 2.13896
1027.36 0.0680851 0.0885843 0.101425 0.106511 0.106815 0.000661172 0.653465 2.15757
1028.89 0.0677692 0.088064 0.100733 0.105701 0.105932 0.000639472 0.647647 2.17625
1030.43 0.0674555 0.0875482 0.100048 0.104901 0.105059 0.000617849 0.649674 2.19502
1031.96 0.0671443 0.0870371 0.0993698 0.104109 0.104197 0.000596304 0.648499 2.21387
1033.49 0.0668457 0.0865472 0.0987193 0.103349 0.103368 0.000574837 0.639414 2.2328
1035.03 0.0665491 0.0860612 0.0980748 0.102596 0.102548 0.000553446 0.643473 2.2518
1036.56 0.0662545 0.0855791 0.0974361 0.101851 0.101736 0.000532132 0.639515 2.27089
1038.1 0.0659619 0.085101 0.0968032 0.101113 0.100934 0.000510894 0.634044 2.29006
1039.63 0.0656714 0.0846266 0.0961761 0.100383 0.100139 0.000489731 0.63526 2.30931
1041.17 0.0653828 0.0841561 0.0955545 0.0996592 0.0993532 0.000468644 0.633835 2.32864
1042.7 0.0651089 0.0837035 0.0949527 0.0989559 0.098587 0.000447632 0.629615 2.34804
1044.24 0.0648409 0.083259 0.0943607 0.0982636 0.0978324 0.000426694 0.629829 2.36753
1045.77 0.0645747 0.082818 0.0937739 0.097578 0.0970857 0.00040583 0.614514 2.38709
1047.31 0.0643102 0.0823804 0.0931923 0.0968991 0.0963466 0.000385039 0.621767 2.40673
1048.84 0.0640474 0.0819462 0.0926158 0.0962266 0.0956151 0.000364323 0.622622 2.42644
1050.38 0.0637863 0.0815202 0.0920535 0.0955737 0.0949082 0.000356107 0.618245 2.44624
1051.91 0.063527 0.0810992 0.0914987 0.0949306 0.0942136 0.000356431 0.615208 2.46611
1053.44 0.0632692 0.0806815 0.0909489 0.0942939 0.0935264 0.000356754 0.611891 2.48606
1054.98 0.0630132 0.080267 0.090404 0.0936634 0.0928466 0.000357076 0.61238 2.50608
1056.51 0.0627595 0.079857 0.0898656 0.093041 0.0921757 0.000357396 0.609805 2.52618
1058.05 0.0625111 0.0794559 0.0893391 0.0924325 0.0915199 0.000357717 0.601973 2.54635
1059.58 0.0622642 0.0790579 0.0888173 0.0918298 0.090871 0.000358036 0.593974 2.5666
1061.12 0.0620188 0.0786629 0.0882999 0.091233 0.0902288 0.000358354 0.588219 2.58693
1062.65 0.061775 0.0782709 0.0877871 0.0906418 0.0895933 0.000358672 0.591513 2.60733
1064.19 0.0615327 0.0778818 0.0872786 0.0900563 0.0889642 0.000358989 0.596732 2.6278
1065.72 0.0612918 0.0774957 0.0867746 0.0894764 0.0883416 0.000359305 0.586451 2.64834
1067.26 0.0610578 0.0771183 0.0862807 0.0889073 0.0877302 0.00035962 0.586175 2.66896
1068.79 0.0608447 0.0767651 0.0858121 0.0883632 0.0871426 0.000359934 0.560839 2.68966
1070.33 0.0606328 0.0764145 0.0853475 0.0878241 0.0865609 0.000360247 0.575443 2.71042
1071.86 0.0604221 0.0760664 0.0848867 0.08729 0.0859851 0.00036056 0.582094 2.73126
1073.39 0.0602126 0.0757206 0.0844297 0.0867607 0.0854149 0.000360872 0.577543 2.75217
1074.93 0.0600042 0.0753774 0.0839764 0.0862363 0.0848504 0.000361182 0.562473 2.77315
1076.46 0.059797 0.0750365 0.0835269 0.0857168 0.0842916 0.000361492 0.57693 2.7942
1078 0.0595909 0.074698 0.083081 0.0852019 0.0837382 0.000361802 0.570762 2.81532
1079.53 0.0593859 0.0743618 0.0826387 0.0846917 0.0831903 0.00036211 0.568417 2.83651
1081.07 0.059181 0.0740263 0.0821979 0.0841838 0.0826453 0.000362418 0.55027 2.85777
1082.6 0.0589751 0.0736897 0.0817564 0.0836759 0.0821012 0.000362725 0.562728 2.8791
1084.14 0.0587704 0.0733555 0.0813186 0.0831727 0.0815623 0.000363031 0.549649 2.90051
1085.67 0.0585668 0.0730236 0.0808844 0.082674 0.0810288 0.000363336 0.53701 2.92197
1087.21 0.0583643 0.0726941 0.0804537 0.0821799 0.0805005 0.000363641 0.541947 2.94351
1088.74 0.058163 0.0723669 0.0800265 0.0816903 0.0799774 0.000363945 0.55194 2.96512
1090.28 0.0579628 0.072042 0.0796028 0.081205 0.0794594 0.000364248 0.534999 2.98679
1091.81 0.0577616 0.0717169 0.0791802 0.080722 0.0789445 0.00036455 0.551762 3.00853
1093.34 0.0575429 0.0713747 0.0787428 0.0802273 0.0784208 0.000364844 0.493481 3.03034
1094.88 0.0573256 0.0710374 0.0783142 0.0797445 0.0779114 0.000365107 0.495755 3.05221
1096.41 0.0571096 0.0707026 0.0778891 0.0792661 0.0774068 0.000365369 0.506574 3.07415
1097.95 0.0568948 0.0703701 0.0774674 0.0787919 0.076907 0.00036563 0.480759 3.09615
1099.48 0.0566814 0.07004 0.0770492 0.0783219 0.076412 0.000365891 0.47172 3.11822
1101.02 0.0564693 0.0697123 0.0766343 0.0778561 0.0759217 0.000366151 0.471225 3.14035
1102.55 0.0562584 0.0693869 0.0762228 0.0773944 0.075436 0.00036641 0.443904 3.16255
1104.09 0.0560488 0.0690639 0.0758146 0.0769367 0.0749548 0.000366668 0.447289 3.18481
1105.62 0.0558445 0.0687495 0.0754175 0.0764915 0.0744867 0.000366926 0.417117 3.20714
1107.16 0.0556454 0.0684436 0.0750311 0.0760583 0.0740312 0.000367183 0.448758 3.22953
1108.69 0.0554474 0.0681397 0.0746478 0.0756288 0.0735798 0.000367438 0.393319 3.25198
1110.23 0.0552506 0.0678379 0.0742674 0.0752029 0.0731324 0.000367693 0.423605 3.27449
1111.76 0.0550549 0.0675382 0.0738899 0.0747806 0.0726891 0.000367948 0.374665 3.29706
1113.29 0.0548602 0.0672404 0.0735152 0.0743618 0.0722497 0.000368201 0.264755 3.3197
1114.83 0.0546667 0.0669447 0.0731435 0.0739465 0.0718143 0.000368454 0.246439 3.34239
1116.36 0.0544743 0.0666509 0.0727745 0.0735347 0.0713828 0.000368706 0.150024 3.36515
1117.9 0.0542809 0.066357 0.0724062 0.0731243 0.0709534 0.000368957 0.194253 3.38797
1119.43 0.0540753 0.0660507 0.0720268 0.0727045 0.0705162 0.000369207 0.120075 3.41084
1120.97 0.0538709 0.0657466 0.0716504 0.0722882 0.0700829 0.000369457 0.176167 3.43378
1122.5 0.0536677 0.0654445 0.0712768 0.0718754 0.0696535 0.000369705 0.100447 3.45677
1124.04 0.0534657 0.0651446 0.0709061 0.071466 0.0692279 0.000369953 0.105217 3.47982
1125.57 0.0532649 0.0648467 0.0705382 0.0710601 0.0688061 0.0003702 0.0873528 3.50293
1127.11 0.0530653 0.0645508 0.0701731 0.0706575 0.068388 0.000370447 0.144455 3.5261
1128.64 0.0528669 0.0642569 0.0698108 0.0702582 0.0679736 0.000370692 0.0990352 3.54932
1130.18 0.0526632 0.0639552 0.0694393 0.0698494 0.06755 0.000370938 0.105127 3.5726
1131.71 0.0524575 0.0636506 0.0690647 0.0694377 0.0671239 0.000371182 0.240546 3.59593
1133.24 0.0522531 0.0633481 0.068693 0.0690295 0.0667016 0.000371425 0.120555 3.61933
1134.78 0.05205 0.0630478 0.0683242 0.0686247 0.0662831 0.000371668 0.0203818 3.64277
1136.31 0.0518481 0.0627487 0.0679562 0.0682204 0.0658647 0.000371926 0.170716 3.66627
1137.85 0.0516474 0.0624516 0.0675911 0.0678196 0.0654502 0.000372182 0.20649 3.68982
1139.38 0.051448 0.0621567 0.0672289 0.0674221 0.0650395 0.000372438 0.269386 3.71343
1140.92 0.0512497 0.0618638 0.0668696 0.0670281 0.0646325 0.000372693 0.189782 3.73709
1142.45 0.0510527 0.0615731 0.0665131 0.0666374 0.0642292 0.000372947 0.252226 3.76081
1143.99 0.0508888 0.0613183 0.0661925 0.0662805 0.0638569 0.000373201 0.110954 3.78457
1145.52 0.0507477 0.0610885 0.0658969 0.0659474 0.0635067 0.000373454 0.145541 3.80839
1147.06 0.0506072 0.0608601 0.0656033 0.0656168 0.0631594 0.000373707 0.0680175 3.83226
1148.59 0.0504673 0.060633 0.0653118 0.0652888 0.062815 0.000373959 0.229432 3.85618
1150.13 0.050328 0.0604072 0.0650223 0.0649633 0.0624735 0.000374209 0.126244 3.88015
1151.66 0.0501894 0.0601827 0.0647348 0.0646403 0.0621349 0.00037446 0.222324 3.90417
1153.19 0.0500513 0.0599595 0.0644493 0.0643198 0.0617991 0.000374709 0.209899 3.92824
1154.73 0.0499251 0.0597547 0.0641862 0.0640235 0.0614876 0.000374958 0.254956 3.95235
1156.26 0.0498017 0.0595547 0.0639292 0.063734 0.0611832 0.000375207 0.276812 3.97652
1157.8 0.0496788 0.0593558 0.0636738 0.0634464 0.0608811 0.000375454 0.298245 4.00073
1159.33 0.0495563 0.0591578 0.0634199 0.0631609 0.0605813 0.000375701 0.305683 4.02499
1160.87 0.0494343 0.0589608 0.0631676 0.0628773 0.0602838 0.000375947 0.323984 4.0493
1162.4 0.0493127 0.0587648 0.0629168 0.0625957 0.0599885 0.000376193 0.379273 4.07366
1163.94 0.0491915 0.0585697 0.0626676 0.0623159 0.0596954 0.000376438 0.387321 4.09806
1165.47 0.0490708 0.0583757 0.0624198 0.0620382 0.0594045 0.000376682 0.364679 4.12251
1167.01 0.0489506 0.0581826 0.0621735 0.0617623 0.0591158 0.000376926 0.391103 4.147
1168.54 0.0488291 0.0579888 0.0619271 0.0614868 0.0588279 0.000377169 0.401963 4.17154
1170.08 0.0486784 0.0577649 0.0616522 0.0611857 0.0585176 0.000377411 0.436574 4.19612
1171.61 0.0485285 0.0575423 0.0613792 0.0608869 0.0582098 0.000377653 0.43128 4.22074
1173.14 0.0483793 0.057321 0.0611079 0.0605903 0.0579043 0.000377894 0.418874 4.24541
1174.68 0.0482308 0.0570986 0.0608337 0.0602889 0.0575924 0.000372999 0.396263 4.27012
1176.21 0.0480831 0.0568719 0.0605503 0.059974 0.0572629 0.000357475 0.453601 4.29487
1177.75 0.0479361 0.0566464 0.0602688 0.0596613 0.056936 0.000341996 0.370732 4.31967
1179.28 0.0477925 0.0564265 0.059994 0.0593561 0.0566165 0.000326562 0.449655 4.3445
1180.82 0.0476497 0.0562078 0.0597211 0.059053 0.0562995 0.000311172 0.431726 4.36938
1182.35 0.0475075 0.0559904 0.0594499 0.058752 0.0559849 0.000295827 0.34757 4.39429
1183.89 0.0473661 0.0557742 0.0591804 0.0584532 0.0556726 0.000280527 0.402838 4.41925
1185.42 0.0472253 0.0555593 0.0589127 0.0581564 0.0553626 0.00026527 0.41692 4.44425
1186.96 0.0470851 0.0553456 0.0586467 0.0578617 0.055055 0.000250058 0.435835 4.46928
1188.49 0.0469456 0.055133 0.0583824 0.057569 0.0547495 0.000234889 0.357887 4.49435
1190.03 0.0468068 0.0549217 0.0581197 0.0572783 0.0544463 0.000219763 0.440868 4.51947
1191.56 0.0466687 0.0547116 0.0578587 0.0569896 0.0541453 0.000204681 0.440556 4.54461
1193.09 0.0465312 0.0545027 0.0575994 0.0567029 0.0538466 0.000189643 0.435002 4.5698
1194.63 0.0464162 0.0543175 0.0573634 0.056438 0.0535677 0.000174647 0.43443 4.59502
1196.16 0.0463224 0.0541548 0.0571494 0.0561936 0.0533075 0.000159693 0.418973 4.62028
1197.7 0.0462288 0.0539928 0.0569365 0.0559506 0.053049 0.000144783 0.426642 4.64557
1199.23 0.0461355 0.0538314 0.0567246 0.055709 0.0527922 0.000129914 0.367119 4.6709
1200 0.0460889 0.053751 0.0566191 0.0555887 0.0526644 0.000122496 0.42789 4.68358