File: forSETO2021.dat
# wavelength[nm] Solar Irradiance[W/m^2/nm] BB intensity@1300K[W/m^2/nm] Au  SiC  B4C  TiN  ZrN
280 4.7309e-23 4.51508e-10 1.77882 1.46888 1.51265 1.63821 1.61683
281.535 2.28473e-19 5.451e-10 1.79264 1.46459 1.50637 1.63746 1.61988
283.069 2.07929e-17 6.56652e-10 1.80511 1.46007 1.49992 1.63609 1.62243
284.604 3.63374e-15 7.89331e-10 1.81648 1.45525 1.49325 1.63409 1.6252
286.138 3.31053e-13 9.4681e-10 1.82678 1.45008 1.48636 1.63148 1.62733
287.673 2.87054e-11 1.13334e-09 1.83604 1.44457 1.47921 1.62829 1.62888
289.208 1.19076e-09 1.35385e-09 1.84164 1.44054 1.47351 1.62549 1.62769
290.742 2.40893e-08 1.61399e-09 1.84508 1.4373 1.46855 1.62305 1.62496
292.277 3.56104e-07 1.92032e-09 1.84788 1.43382 1.46327 1.62042 1.622
293.812 3.45674e-06 2.28032e-09 1.85045 1.42949 1.45696 1.61706 1.61932
295.346 2.30447e-05 2.70261e-09 1.85304 1.41953 1.44382 1.60837 1.61912
296.881 9.07282e-05 3.19706e-09 1.85344 1.40872 1.42975 1.59873 1.61809
298.415 0.000346375 3.77494e-09 1.85168 1.39719 1.41493 1.58829 1.61657
299.95 0.0010045 4.44912e-09 1.84788 1.38506 1.39951 1.57717 1.61448
301.485 0.0026679 5.23425e-09 1.84192 1.3749 1.386 1.56786 1.61104
303.019 0.00716682 6.14701e-09 1.83431 1.36966 1.37723 1.56345 1.60572
304.554 0.0124382 7.20633e-09 1.82627 1.36421 1.36828 1.55907 1.60059
306.088 0.0190245 8.43369e-09 1.81492 1.36121 1.36052 1.55776 1.59406
307.623 0.0361768 9.85338e-09 1.80202 1.36086 1.35383 1.56043 1.58828
309.158 0.0414079 1.14929e-08 1.79321 1.36143 1.34919 1.56451 1.58642
310.692 0.0722232 1.33831e-08 1.78958 1.36629 1.35138 1.57232 1.58381
312.227 0.0959204 1.55591e-08 1.78559 1.37088 1.35331 1.58031 1.58097
313.761 0.113908 1.80601e-08 1.78152 1.37522 1.35497 1.5883 1.57814
315.296 0.125668 2.09301e-08 1.77852 1.38384 1.36011 1.60164 1.57382
316.831 0.164395 2.42188e-08 1.77707 1.3983 1.36997 1.62214 1.56648
318.365 0.183224 2.79816e-08 1.77499 1.41179 1.37957 1.64108 1.5569
319.9 0.203392 3.22804e-08 1.77127 1.42552 1.39072 1.65906 1.54335
321.435 0.239976 3.71847e-08 1.76609 1.43923 1.40162 1.67706 1.52761
322.969 0.212558 4.27716e-08 1.75936 1.45295 1.41237 1.69511 1.50953
324.504 0.283178 4.91274e-08 1.74614 1.47969 1.43467 1.72562 1.47368
326.038 0.383197 5.63478e-08 1.72249 1.51141 1.46084 1.75963 1.42286
327.573 0.379762 6.45394e-08 1.6859 1.54466 1.48744 1.79349 1.3594
329.108 0.432341 7.38202e-08 1.64935 1.56719 1.50669 1.81572 1.30636
330.642 0.420782 8.43212e-08 1.61467 1.58359 1.52242 1.83147 1.26153
332.177 0.437277 9.61874e-08 1.57584 1.60038 1.5387 1.84689 1.21479
333.711 0.410509 1.09579e-07 1.52846 1.61939 1.55933 1.8619 1.16212
335.246 0.45859 1.24673e-07 1.47546 1.63921 1.5822 1.87572 1.10624
336.781 0.377459 1.41665e-07 1.41814 1.65935 1.60647 1.88795 1.04872
338.315 0.447452 1.60769e-07 1.37457 1.67244 1.62557 1.89397 1.00796
339.85 0.493591 1.82223e-07 1.33959 1.68169 1.64173 1.8963 0.976914
341.384 0.469821 2.06287e-07 1.30491 1.69085 1.6582 1.89709 0.946525
342.919 0.513722 2.33245e-07 1.27064 1.69991 1.67493 1.89616 0.916812
344.454 0.404492 2.63412e-07 1.23694 1.70881 1.69182 1.89331 0.88779
345.988 0.478049 2.9713e-07 1.20562 1.71756 1.70878 1.88836 0.859488
347.523 0.476665 3.34775e-07 1.17509 1.72622 1.72566 1.88114 0.831923
349.058 0.467068 3.76758e-07 1.1454 1.73479 1.74234 1.8715 0.805043
350.592 0.564518 4.23527e-07 1.1166 1.74313 1.75861 1.8593 0.778835
352.127 0.510737 4.7557e-07 1.08871 1.75131 1.77434 1.84444 0.753282
353.661 0.582835 5.33421e-07 1.06177 1.75942 1.78937 1.82683 0.728366
355.196 0.603121 5.97661e-07 1.03966 1.76636 1.80184 1.80792 0.706912
356.731 0.490506 6.6892e-07 1.027 1.77021 1.80934 1.79133 0.69587
358.265 0.413722 7.47883e-07 1.01481 1.77425 1.81672 1.77356 0.686052
359.8 0.585087 8.35297e-07 1.00308 1.77838 1.82401 1.7547 0.676541
361.334 0.513096 9.31968e-07 0.991813 1.78256 1.83123 1.73483 0.667321
362.869 0.597508 1.03877e-06 0.980981 1.78732 1.83849 1.71405 0.658379
364.404 0.601678 1.15665e-06 0.970574 1.79247 1.84577 1.69248 0.64972
365.938 0.729267 1.28664e-06 0.960387 1.79765 1.85321 1.67021 0.641421
367.473 0.709883 1.42983e-06 0.950541 1.80282 1.8608 1.64737 0.633363
369.008 0.693924 1.58743e-06 0.941069 1.80823 1.86875 1.62404 0.625535
370.542 0.683517 1.76072e-06 0.931958 1.81374 1.87717 1.60034 0.617926
372.077 0.669543 1.9511e-06 0.923712 1.81883 1.88583 1.57697 0.611097
373.611 0.557535 2.16005e-06 0.91863 1.82225 1.89377 1.55613 0.607522
375.146 0.607492 2.38919e-06 0.913766 1.82535 1.90213 1.5354 0.60409
376.681 0.681361 2.64025e-06 0.909189 1.82805 1.91099 1.51483 0.600796
378.215 0.846581 2.91508e-06 0.904852 1.83033 1.92012 1.49447 0.597633
379.75 0.683786 3.21569e-06 0.900699 1.83212 1.92952 1.47436 0.594597
381.284 0.720908 3.5442e-06 0.896726 1.83331 1.93903 1.45453 0.591983
382.819 0.47404 3.90292e-06 0.892925 1.83385 1.9486 1.43503 0.58955
384.354 0.583171 4.29428e-06 0.889291 1.83376 1.95802 1.41587 0.587056
385.888 0.626058 4.72093e-06 0.885817 1.83299 1.96715 1.39708 0.584254
387.423 0.643495 5.18567e-06 0.882499 1.8315 1.97598 1.37868 0.581536
388.957 0.68083 5.69149e-06 0.878837 1.82927 1.9843 1.36087 0.579001
390.492 0.803604 6.2416e-06 0.8768 1.82557 1.99025 1.34601 0.578597
392.027 0.787865 6.83941e-06 0.874813 1.82128 1.99557 1.33154 0.578239
393.561 0.395515 7.48856e-06 0.872873 1.81645 2.00022 1.31745 0.577924
395.096 0.817822 8.19293e-06 0.870977 1.81113 2.00415 1.30375 0.577649
396.631 0.517805 8.95665e-06 0.869124 1.80539 2.00732 1.29041 0.57741
398.165 0.903488 9.78411e-06 0.867312 1.79931 2.00971 1.27745 0.57759
399.7 1.10689 1.068e-05 0.865537 1.79295 2.01123 1.26485 0.578293
401.234 1.17103 1.16492e-05 0.862077 1.78642 2.01185 1.25261 0.579051
402.769 1.17165 1.2697e-05 0.858405 1.77977 2.01155 1.24071 0.579863
404.304 1.1713 1.38291e-05 0.854779 1.7731 2.01028 1.22916 0.580727
405.838 1.1273 1.50513e-05 0.851198 1.76649 2.00805 1.21794 0.584921
407.373 1.12079 1.63699e-05 0.846958 1.76086 2.00553 1.20742 0.588784
408.907 1.22263 1.77915e-05 0.842746 1.7555 2.0023 1.1973 0.592741
410.442 1.10389 1.93232e-05 0.838572 1.75038 1.99837 1.18742 0.596743
411.977 1.24607 2.09723e-05 0.834437 1.74555 1.99376 1.17777 0.600789
413.511 1.1905 2.27469e-05 0.830355 1.74105 1.98846 1.16964 0.604884
415.046 1.22748 2.4655e-05 0.826417 1.73686 1.98247 1.16989 0.609027
416.58 1.24429 2.67056e-05 0.822528 1.73299 1.97577 1.17037 0.613139
418.115 1.18324 2.89078e-05 0.818688 1.72944 1.9684 1.17107 0.617195
419.65 1.15914 3.12714e-05 0.814897 1.72619 1.96039 1.172 0.621299
421.184 1.27249 3.38066e-05 0.811153 1.7232 1.9517 1.17313 0.625454
422.719 1.22961 3.65242e-05 0.807457 1.72043 1.94235 1.17447 0.629661
424.254 1.22111 3.94356e-05 0.803807 1.71784 1.93235 1.17602 0.633922
425.788 1.22098 4.25529e-05 0.800203 1.71535 1.92174 1.17777 0.638239
427.323 1.17611 4.58884e-05 0.796645 1.71295 1.91053 1.17972 0.642614
428.857 1.10879 4.94556e-05 0.793252 1.71058 1.89873 1.18186 0.647152
430.392 0.842994 5.32681e-05 0.789926 1.70816 1.8864 1.18419 0.652381
431.927 1.28204 5.73407e-05 0.786649 1.70564 1.87358 1.1867 0.657687
433.461 1.18563 6.16886e-05 0.783421 1.70296 1.8603 1.18941 0.663074
434.996 1.24474 6.63278e-05 0.780241 1.70006 1.84664 1.1923 0.669209
436.53 1.38096 7.12751e-05 0.777058 1.69693 1.83275 1.19535 0.675538
438.065 1.22079 7.65482e-05 0.773823 1.69375 1.81923 1.19864 0.681912
439.6 1.28088 8.21653e-05 0.77064 1.6902 1.80549 1.20211 0.688402
441.134 1.34388 8.81459e-05 0.767499 1.68625 1.79155 1.20573 0.695003
442.669 1.43858 9.451e-05 0.7644 1.68186 1.7775 1.20952 0.70172
444.204 1.41929 0.000101279 0.75901 1.677 1.76337 1.21346 0.708555
445.738 1.35037 0.000108474 0.753447 1.67167 1.74924 1.21756 0.715516
447.273 1.49515 0.000116119 0.747929 1.66585 1.73516 1.22182 0.722605
448.807 1.50519 0.000124238 0.742457 1.65955 1.72116 1.22624 0.729829
450.342 1.57926 0.000132855 0.737029 1.65277 1.70723 1.23082 0.737193
451.877 1.55673 0.000141997 0.731646 1.64554 1.69347 1.23555 0.744744
453.411 1.47238 0.000151691 0.726306 1.63787 1.67999 1.24045 0.754338
454.946 1.523 0.000161966 0.721009 1.62984 1.66677 1.2455 0.764144
456.48 1.57865 0.00017285 0.715756 1.62148 1.65385 1.25072 0.774171
458.015 1.55122 0.000184376 0.710545 1.61281 1.64126 1.2561 0.784553
459.55 1.5336 0.000196573 0.70444 1.60387 1.62899 1.26164 0.795724
461.084 1.58395 0.000209477 0.695144 1.59474 1.61708 1.26734 0.807149
462.619 1.60097 0.000223122 0.685797 1.58546 1.60557 1.27321 0.818839
464.153 1.55142 0.000237543 0.676398 1.57606 1.59446 1.27925 0.830802
465.688 1.55722 0.000252778 0.666944 1.56656 1.58377 1.28546 0.843049
467.223 1.51169 0.000268865 0.657437 1.55699 1.5735 1.29184 0.855591
468.757 1.56667 0.000285846 0.647875 1.54737 1.5636 1.2984 0.868439
470.292 1.51511 0.000303762 0.638259 1.53776 1.55413 1.30513 0.881605
471.827 1.59881 0.000322655 0.628588 1.52819 1.54502 1.31204 0.8951
473.361 1.55611 0.000342572 0.618863 1.51869 1.53635 1.31913 0.908937
474.896 1.61314 0.000363558 0.609085 1.50927 1.52822 1.3264 0.923128
476.43 1.5671 0.000385662 0.599104 1.50016 1.52076 1.33372 0.935695
477.965 1.62123 0.000408934 0.596342 1.49182 1.51447 1.34075 0.947415
479.5 1.60484 0.000433425 0.5968 1.48366 1.50854 1.34795 0.959407
481.034 1.6179 0.000459189 0.596999 1.47574 1.50292 1.35531 0.971676
482.569 1.61234 0.000486281 0.596912 1.468 1.49764 1.36285 0.984233
484.103 1.57287 0.000514759 0.596507 1.46044 1.49274 1.37055 0.997335
485.638 1.379 0.000544681 0.595752 1.4531 1.48819 1.37844 1.01086
487.173 1.44433 0.000576108 0.594611 1.44604 1.48396 1.3865 1.02468
488.707 1.47807 0.000609105 0.593044 1.43918 1.48007 1.39475 1.03879
490.242 1.60719 0.000643734 0.591012 1.43253 1.47655 1.40319 1.05321
491.776 1.50313 0.000680065 0.588468 1.42611 1.47335 1.41182 1.06795
493.311 1.57854 0.000718166 0.585366 1.41995 1.47043 1.42065 1.083
494.846 1.63369 0.000758109 0.581654 1.41401 1.46781 1.42968 1.09838
496.38 1.57779 0.000799967 0.580052 1.40828 1.46549 1.43947 1.1141
497.915 1.5546 0.000843816 0.584203 1.40281 1.46345 1.45053 1.13016
499.45 1.54818 0.000889735 0.588179 1.39762 1.46179 1.4616 1.14666
500.984 1.49855 0.000937804 0.591953 1.39264 1.4604 1.47267 1.16485
502.519 1.53224 0.000988106 0.595492 1.38789 1.4592 1.48372 1.18345
504.053 1.46429 0.00104073 0.598759 1.38337 1.45824 1.49476 1.20248
505.588 1.60048 0.00109575 0.601713 1.37911 1.45753 1.50579 1.22193
507.123 1.55116 0.00115328 0.604305 1.37506 1.45706 1.51678 1.24182
508.657 1.56435 0.00121339 0.60648 1.37123 1.45677 1.52775 1.26216
510.192 1.55362 0.00127619 0.608175 1.36766 1.45672 1.53868 1.28287
511.726 1.60719 0.00134177 0.609316 1.36437 1.45701 1.54957 1.30395
513.261 1.51222 0.00141024 0.609821 1.3613 1.45753 1.56041 1.3254
514.796 1.52263 0.0014817 0.609593 1.35846 1.45822 1.57119 1.34721
516.33 1.45101 0.00155624 0.608523 1.35589 1.45912 1.5819 1.36938
517.865 1.41586 0.001634 0.623113 1.35363 1.46004 1.59255 1.39191
519.399 1.4468 0.00171507 0.642156 1.35161 1.46114 1.60312 1.41478
520.934 1.53388 0.00179956 0.662398 1.34983 1.46279 1.6136 1.43798
522.469 1.52677 0.00188761 0.683962 1.34833 1.46467 1.62398 1.4615
524.003 1.59046 0.00197932 0.70699 1.34715 1.46653 1.63427 1.4819
525.538 1.55443 0.00207483 0.731433 1.34622 1.46854 1.64438 1.50217
527.073 1.35578 0.00217426 0.757604 1.34553 1.47083 1.65438 1.52264
528.607 1.57905 0.00227773 0.78576 1.34514 1.4733 1.66425 1.54332
530.142 1.55659 0.00238539 0.816138 1.3451 1.47584 1.67399 1.5642
531.676 1.60931 0.00249737 0.849013 1.34535 1.47852 1.68359 1.58525
533.211 1.45004 0.0026138 0.884705 1.34588 1.48139 1.69303 1.60645
534.746 1.54757 0.00273484 0.923587 1.34674 1.48443 1.70232 1.62738
536.28 1.58599 0.00286062 0.966098 1.34801 1.48763 1.71143 1.64801
537.815 1.55993 0.00299129 1.01276 1.34958 1.491 1.72036 1.66862
539.349 1.51678 0.00312701 1.06285 1.35147 1.49465 1.7291 1.68918
540.884 1.43175 0.00326794 1.11035 1.35373 1.49847 1.73765 1.70966
542.419 1.54042 0.00341423 1.16173 1.35645 1.50239 1.74598 1.73002
543.953 1.5767 0.00356604 1.21739 1.3595 1.50645 1.75409 1.75022
545.488 1.53647 0.00372354 1.27781 1.36291 1.5106 1.76198 1.77024
547.023 1.54801 0.00388691 1.34349 1.36669 1.51487 1.76962 1.7913
548.557 1.53114 0.0040563 1.41503 1.37089 1.5193 1.77701 1.81233
550.092 1.53974 0.00423191 1.49306 1.37546 1.52386 1.78414 1.833
551.626 1.55793 0.00441391 1.5783 1.3804 1.52867 1.79101 1.85326
553.161 1.52981 0.00460248 1.6715 1.38574 1.53361 1.79759 1.87304
554.696 1.56081 0.00479781 1.7735 1.39153 1.53855 1.80388 1.8923
556.23 1.5279 0.0050001 1.88517 1.39771 1.54359 1.80987 1.91097
557.765 1.52343 0.00520953 2.0074 1.40428 1.54869 1.81555 1.929
559.299 1.45599 0.00542631 2.14107 1.41127 1.55388 1.82091 1.94629
560.834 1.54531 0.00565063 2.28697 1.41875 1.55921 1.82594 1.9619
562.369 1.50538 0.00588271 2.44573 1.42662 1.56464 1.83064 1.97662
563.903 1.51352 0.00612275 2.61299 1.43491 1.57027 1.83495 1.99021
565.438 1.48389 0.00637097 2.7733 1.44362 1.57603 1.83884 2.00254
566.972 1.5294 0.00662758 2.94122 1.45275 1.58179 1.84238 2.01382
568.507 1.49909 0.0068928 3.11494 1.46227 1.5876 1.84555 2.02398
570.042 1.47958 0.00716687 3.29174 1.47217 1.59351 1.84835 2.03299
571.576 1.47938 0.00745 3.46771 1.48247 1.59948 1.85077 2.04018
573.111 1.51892 0.00774243 3.63764 1.49322 1.60537 1.85281 2.04622
574.646 1.48982 0.0080444 3.79496 1.50433 1.61125 1.85445 2.05111
576.18 1.47205 0.00835614 3.93192 1.51578 1.61732 1.8557 2.0548
577.715 1.46921 0.00867791 4.04004 1.52757 1.62345 1.85655 2.05728
579.249 1.48323 0.00900995 4.11096 1.53978 1.62958 1.85699 2.05852
580.784 1.50741 0.0093525 4.13743 1.55226 1.63569 1.85702 2.05851
582.319 1.53707 0.00970584 4.11454 1.56499 1.64155 1.85664 2.05723
583.853 1.54526 0.0100702 4.04061 1.57795 1.6473 1.85584 2.05467
585.388 1.51801 0.0104459 3.91774 1.5911 1.65328 1.85462 2.05049
586.922 1.52556 0.0108331 3.75157 1.6044 1.65928 1.85298 2.04467
588.457 1.40016 0.0112322 3.55052 1.61779 1.66507 1.85092 2.03758
589.992 1.37022 0.0116434 3.32455 1.63124 1.67073 1.84844 2.02923
591.526 1.44999 0.012067 3.09099 1.64465 1.67626 1.84553 2.01966
593.061 1.45567 0.0125032 2.85752 1.65802 1.68167 1.8422 2.00887
594.595 1.4382 0.0129525 2.62832 1.67127 1.68696 1.83845 1.99698
596.13 1.47506 0.013415 2.40802 1.68437 1.69209 1.83428 1.98448
597.665 1.46677 0.013891 2.19977 1.69726 1.69701 1.82969 1.97107
599.199 1.46353 0.0143809 2.00544 1.70983 1.70171 1.82469 1.95677
600.734 1.46253 0.0148849 1.82591 1.72201 1.70625 1.81927 1.94162
602.269 1.44416 0.0154034 1.66131 1.73373 1.71057 1.81345 1.92564
603.803 1.48704 0.0159367 1.51125 1.74499 1.71462 1.80723 1.90888
605.338 1.48703 0.0164851 1.37502 1.75559 1.71839 1.80061 1.89138
606.872 1.48996 0.0170488 1.252 1.7654 1.72189 1.79366 1.87335
608.407 1.4816 0.0176283 1.14093 1.77433 1.72508 1.78639 1.85485
609.942 1.46897 0.0182239 1.04049 1.78235 1.72791 1.77875 1.83574
611.476 1.47158 0.0188358 0.949741 1.78937 1.73038 1.77075 1.81435
613.011 1.46162 0.0194644 0.867744 1.7953 1.73249 1.76239 1.79242
614.545 1.44602 0.0201101 0.79364 1.80005 1.7342 1.75367 1.77011
616.08 1.42954 0.0207732 0.726632 1.80352 1.73554 1.74462 1.74747
617.615 1.44575 0.0214541 0.665991 1.80566 1.73647 1.73523 1.72452
619.149 1.47339 0.022153 0.61106 1.80641 1.73693 1.72552 1.70111
620.684 1.47821 0.0228704 0.564833 1.8057 1.73691 1.71495 1.67701
622.219 1.42463 0.0236066 0.525908 1.80345 1.73645 1.70369 1.6527
623.753 1.41296 0.0243619 0.490236 1.79963 1.73553 1.69233 1.62823
625.288 1.4022 0.0251367 0.457499 1.79419 1.73401 1.68088 1.60364
626.822 1.43451 0.0259315 0.427414 1.7871 1.73192 1.66933 1.57898
628.357 1.38034 0.0267465 0.399725 1.77827 1.72932 1.65771 1.55427
629.892 1.39446 0.0275821 0.374207 1.76776 1.72617 1.646 1.52956
631.426 1.39381 0.0284388 0.350657 1.75558 1.72251 1.63423 1.50487
632.961 1.44739 0.0293168 0.328893 1.74176 1.71832 1.6224 1.48025
634.495 1.43702 0.0302166 0.308755 1.72642 1.71344 1.6105 1.4557
636.03 1.41425 0.0311386 0.290096 1.70953 1.70789 1.59856 1.43131
637.565 1.46648 0.0320832 0.272787 1.69115 1.70167 1.58657 1.4071
639.099 1.46156 0.0330507 0.256709 1.6714 1.69479 1.57454 1.38305
640.634 1.43451 0.0340415 0.241757 1.65073 1.68747 1.56248 1.35917
642.168 1.44011 0.0350561 0.227838 1.62887 1.67967 1.55039 1.3355
643.703 1.44807 0.0360949 0.214863 1.6059 1.67133 1.53827 1.31245
645.238 1.44679 0.0371582 0.202757 1.58193 1.66245 1.52614 1.2901
646.772 1.41006 0.0382465 0.191523 1.55718 1.65304 1.51402 1.26806
648.307 1.38191 0.0393602 0.18138 1.53198 1.64334 1.50199 1.24646
649.842 1.35821 0.0404997 0.171879 1.50607 1.63304 1.48995 1.22513
651.376 1.42303 0.0416654 0.162969 1.47955 1.62217 1.47793 1.20408
652.911 1.42717 0.0428578 0.154774 1.45233 1.61086 1.46591 1.1833
654.445 1.38617 0.0440773 0.147503 1.42468 1.59912 1.4539 1.1628
655.98 1.1884 0.0453242 0.140645 1.3967 1.58702 1.44191 1.1426
657.515 1.31453 0.0465991 0.13417 1.36848 1.57456 1.42995 1.12269
659.049 1.39093 0.0479024 0.128052 1.34023 1.56156 1.41801 1.10308
660.584 1.39576 0.0492344 0.122268 1.31192 1.54804 1.40609 1.08378
662.118 1.3822 0.0505957 0.116795 1.28361 1.53415 1.39421 1.06467
663.653 1.39243 0.0519867 0.111613 1.25539 1.51992 1.38237 1.04587
665.188 1.42119 0.0534079 0.106704 1.22749 1.50543 1.37056 1.0274
666.722 1.41301 0.0548596 0.102049 1.19979 1.49071 1.3588 1.00925
668.257 1.42127 0.0563423 0.0976334 1.17235 1.47569 1.34708 0.991844
669.791 1.42373 0.0578566 0.0934417 1.14521 1.46042 1.3354 0.974991
671.326 1.41048 0.0594027 0.0894603 1.11864 1.44488 1.32378 0.95844
672.861 1.4077 0.0609813 0.0856763 1.09244 1.42909 1.31221 0.942189
674.395 1.40281 0.0625927 0.0820779 1.06666 1.41313 1.3007 0.926236
675.93 1.41087 0.0642374 0.0786542 1.04131 1.39702 1.28924 0.910577
677.465 1.40258 0.0659159 0.0753949 1.01661 1.38076 1.27785 0.895209
678.999 1.39471 0.0676286 0.0722905 0.992371 1.3644 1.26651 0.880129
680.534 1.39402 0.0693761 0.069332 0.968619 1.34791 1.25524 0.865333
682.068 1.39707 0.0711587 0.0665112 0.945363 1.33131 1.24404 0.850818
683.603 1.37751 0.072977 0.0638205 0.922485 1.31471 1.23291 0.836579
685.138 1.37053 0.0748314 0.0612526 0.900115 1.29812 1.22184 0.822613
686.672 1.09134 0.0767224 0.0588007 0.878258 1.28113 1.21084 0.808916
688.207 1.12209 0.0786504 0.0564586 0.856916 1.26372 1.19992 0.795483
689.741 1.16806 0.0806161 0.0545043 0.836027 1.24665 1.18907 0.78231
691.276 1.24313 0.0826197 0.0528056 0.815656 1.23002 1.1783 0.769392
692.811 1.26241 0.0846618 0.0511797 0.795838 1.21376 1.16763 0.756107
694.345 1.25503 0.086743 0.0496186 0.776534 1.19787 1.15704 0.742919
695.88 1.26876 0.0888636 0.0481183 0.757971 1.18149 1.14653 0.730001
697.415 1.33155 0.0910242 0.046676 0.73991 1.16448 1.1361 0.71735
698.949 1.29319 0.0932252 0.0452888 0.722334 1.14794 1.12575 0.70496
700.484 1.27437 0.0954671 0.0439541 0.705235 1.13199 1.11548 0.692827
702.018 1.26753 0.0977505 0.0426695 0.688959 1.11594 1.10529 0.680945
703.553 1.293 0.100076 0.0414326 0.673136 1.09976 1.09519 0.66931
705.088 1.32079 0.102443 0.0402412 0.657749 1.08394 1.08517 0.657917
706.622 1.31104 0.104854 0.0390933 0.642786 1.06858 1.07523 0.646761
708.157 1.30554 0.107308 0.0379868 0.628166 1.0533 1.06537 0.635837
709.691 1.31503 0.109806 0.03692 0.613944 1.03806 1.0556 0.62514
711.226 1.3136 0.112348 0.035891 0.600113 1.02315 1.04591 0.614666
712.761 1.29546 0.114935 0.0348982 0.586663 1.00863 1.03631 0.604452
714.295 1.28985 0.117567 0.0339401 0.573442 0.993891 1.02679 0.594467
715.83 1.26941 0.120245 0.0330151 0.560577 0.978712 1.01736 0.584695
717.364 1.07885 0.12297 0.0321218 0.548065 0.963972 1.00801 0.576458
718.899 0.93392 0.125741 0.0312589 0.535897 0.94981 0.99875 0.568455
720.434 1.02913 0.12856 0.030425 0.524274 0.935733 0.989573 0.560599
721.968 1.2358 0.131427 0.0296191 0.512988 0.921663 0.980482 0.552887
723.503 1.09969 0.134342 0.0288398 0.502011 0.907889 0.971476 0.545316
725.038 1.03963 0.137305 0.0280863 0.491335 0.894482 0.962555 0.537883
726.572 1.08342 0.140318 0.0273573 0.480774 0.881309 0.95372 0.530585
728.107 1.0407 0.143381 0.0266519 0.470484 0.868395 0.944969 0.523419
729.641 1.09913 0.146494 0.026006 0.46047 0.8557 0.936303 0.516384
731.176 1.08492 0.149658 0.0255052 0.450717 0.84322 0.927711 0.509463
732.711 1.18381 0.152873 0.0250152 0.441196 0.830559 0.919166 0.502632
734.245 1.23131 0.15614 0.0245386 0.431931 0.817493 0.910705 0.495924
735.78 1.20852 0.159459 0.0240749 0.422916 0.805082 0.902329 0.489336
737.314 1.21113 0.162831 0.0236236 0.414141 0.793789 0.894037 0.482869
738.849 1.19599 0.166257 0.0231843 0.405953 0.782389 0.885829 0.476526
740.384 1.2177 0.169736 0.0227566 0.398022 0.770585 0.877704 0.470259
741.918 1.21526 0.173269 0.0223401 0.3903 0.759363 0.869662 0.463775
743.453 1.24494 0.176857 0.0219344 0.38278 0.749168 0.861702 0.457413
744.987 1.24971 0.1805 0.0215392 0.375484 0.738621 0.853824 0.451169
746.522 1.24737 0.184199 0.0211541 0.368379 0.727106 0.846027 0.445041
748.057 1.23985 0.187954 0.0207788 0.361454 0.716218 0.838312 0.439026
749.591 1.23475 0.191766 0.020413 0.354703 0.706533 0.830676 0.433121
751.126 1.22915 0.195635 0.0200563 0.348113 0.6966 0.823121 0.427325
752.661 1.22877 0.199561 0.0197085 0.341684 0.685834 0.815645 0.421635
754.195 1.24128 0.203546 0.0193692 0.335413 0.675526 0.808248 0.416048
755.73 1.22728 0.207589 0.0190383 0.329295 0.666048 0.800929 0.410562
757.264 1.22406 0.211692 0.0187154 0.323203 0.656705 0.793687 0.405176
758.799 1.20154 0.215854 0.0184004 0.317239 0.647438 0.786523 0.399886
760.334 0.228649 0.220076 0.0180928 0.311418 0.638204 0.779435 0.394692
761.868 0.617331 0.224358 0.0177926 0.305735 0.62878 0.772422 0.38959
763.403 0.443676 0.228702 0.0174995 0.300231 0.619823 0.765485 0.384598
764.937 0.6768 0.233107 0.0172133 0.294864 0.611912 0.758623 0.379694
766.472 0.889932 0.237573 0.0169337 0.289622 0.603729 0.751834 0.374849
768.007 1.11389 0.242103 0.0166606 0.284503 0.594505 0.745119 0.37009
769.541 1.14566 0.246695 0.0163939 0.279575 0.585749 0.738476 0.365416
771.076 1.1693 0.25135 0.0161332 0.274776 0.5781 0.731905 0.360824
772.611 1.17737 0.256069 0.0158784 0.270085 0.570336 0.725405 0.356312
774.145 1.1771 0.260853 0.0156293 0.265499 0.561955 0.718976 0.351879
775.68 1.17894 0.265701 0.0153871 0.260934 0.55387 0.712617 0.347524
777.214 1.1724 0.270614 0.0151512 0.256451 0.546427 0.706327 0.343244
778.749 1.17519 0.275593 0.0149205 0.252067 0.539064 0.700106 0.339038
780.284 1.16278 0.280638 0.0146947 0.247779 0.531659 0.693952 0.334904
781.818 1.1652 0.285749 0.0144737 0.243659 0.524531 0.687866 0.330841
783.353 1.15865 0.290927 0.0142575 0.239646 0.518034 0.681848 0.326848
784.887 1.15804 0.296173 0.0140459 0.235718 0.51175 0.675896 0.322924
786.422 1.15321 0.301487 0.0138386 0.231874 0.505904 0.670009 0.319065
787.957 1.13113 0.306868 0.0136357 0.228114 0.499723 0.664187 0.315272
789.491 1.10865 0.312319 0.013437 0.224433 0.492018 0.658429 0.311648
791.026 1.10553 0.317838 0.0132424 0.220828 0.4848 0.652734 0.308223
792.56 1.09093 0.323427 0.0130518 0.217299 0.479014 0.647101 0.304851
794.095 1.09682 0.329086 0.012865 0.213965 0.473242 0.641531 0.301532
795.63 1.08124 0.334815 0.0126821 0.21073 0.467215 0.636021 0.298264
797.164 1.09472 0.340615 0.0125028 0.20756 0.461406 0.630572 0.295047
798.699 1.097 0.346487 0.0123271 0.204453 0.456243 0.625183 0.291879
800.234 1.07526 0.352429 0.0121549 0.201374 0.450862 0.619853 0.288759
801.768 1.0853 0.358444 0.011986 0.198346 0.444006 0.614582 0.285688
803.303 1.06948 0.364532 0.0118206 0.195377 0.437552 0.609369 0.282662
804.837 1.05835 0.370692 0.0116583 0.192467 0.432582 0.604213 0.279683
806.372 1.09312 0.376925 0.0114992 0.189776 0.42771 0.599114 0.276748
807.907 1.08245 0.383232 0.0113432 0.187184 0.422974 0.59407 0.273857
809.441 1.05529 0.389613 0.0111902 0.184641 0.418199 0.589082 0.27101
810.976 1.05336 0.396068 0.0110401 0.182147 0.412793 0.584149 0.268205
812.51 1.01751 0.402599 0.0108929 0.179848 0.407411 0.57927 0.265441
814.045 0.903185 0.409204 0.0107484 0.177639 0.401742 0.574444 0.262729
815.58 0.858671 0.415885 0.0106067 0.17547 0.396443 0.569672 0.260066
817.114 0.848489 0.422641 0.0104677 0.173341 0.393244 0.564951 0.257441
818.649 0.876187 0.429474 0.0103312 0.170993 0.390083 0.560283 0.254854
820.183 0.88679 0.436384 0.0101975 0.168599 0.386842 0.555671 0.252308
821.718 0.964557 0.443371 0.0100665 0.16625 0.383514 0.551118 0.249803
823.253 0.739009 0.450434 0.00993798 0.163942 0.379021 0.546615 0.247335
824.787 0.962057 0.457576 0.00981177 0.161829 0.37467 0.542161 0.2449
826.322 0.950177 0.464796 0.00968784 0.159809 0.371008 0.537755 0.2425
827.857 0.869136 0.472094 0.00958103 0.157823 0.36723 0.534224 0.240134
829.391 0.924101 0.479471 0.00947926 0.155871 0.362064 0.530906 0.2378
830.926 0.923333 0.486926 0.00937913 0.153962 0.357004 0.527618 0.235499
832.46 0.922914 0.494462 0.00928061 0.152089 0.352413 0.524358 0.23323
833.995 0.934232 0.502076 0.00918366 0.150247 0.347962 0.521128 0.230992
835.53 0.986856 0.509771 0.00908826 0.148435 0.344414 0.517925 0.228784
837.064 1.00855 0.517547 0.00899437 0.14635 0.340856 0.514751 0.226607
838.599 1.00038 0.525403 0.00890195 0.144167 0.336287 0.511605 0.224247
840.133 1.01495 0.53334 0.00881099 0.14202 0.331831 0.508485 0.2219
841.668 1.00137 0.541358 0.00872144 0.139907 0.328132 0.505393 0.219588
843.203 1.00145 0.549458 0.00863329 0.137959 0.324423 0.502328 0.21731
844.737 1.00857 0.55764 0.0085465 0.136101 0.319647 0.49929 0.215068
846.272 1.01136 0.565903 0.00846104 0.134272 0.315108 0.496278 0.212858
847.807 0.992079 0.57425 0.00837689 0.132473 0.312901 0.493291 0.210682
849.341 0.954495 0.582679 0.00829402 0.130952 0.310694 0.490331 0.208538
850.876 0.964838 0.591191 0.00821241 0.129573 0.307326 0.487396 0.206426
852.41 0.96746 0.599786 0.00813202 0.128216 0.304012 0.484486 0.204345
853.945 0.857381 0.608465 0.00805285 0.126881 0.300884 0.481601 0.202295
855.48 0.941856 0.617228 0.00797485 0.12561 0.297796 0.478741 0.200275
857.014 0.991664 0.626075 0.00789802 0.12438 0.294539 0.475905 0.198284
858.549 0.991823 0.635006 0.00782233 0.123168 0.291328 0.473094 0.196322
860.083 0.988046 0.644022 0.00774719 0.121971 0.288219 0.470288 0.194377
861.618 0.991549 0.653123 0.007673 0.120703 0.285164 0.4675 0.192458
863.153 0.997243 0.662308 0.0075999 0.119413 0.282657 0.464736 0.191048
864.687 0.968219 0.671579 0.00752788 0.118142 0.280186 0.461996 0.189692
866.222 0.863744 0.680936 0.00745691 0.116888 0.277462 0.459278 0.188337
867.756 0.948548 0.690378 0.00738696 0.115535 0.274774 0.456584 0.186996
869.291 0.954796 0.699906 0.00731804 0.114134 0.272436 0.453913 0.185669
870.826 0.956255 0.709521 0.0072501 0.112753 0.270137 0.451264 0.184356
872.36 0.963383 0.719222 0.00718314 0.111391 0.267046 0.448638 0.183057
873.895 0.942184 0.729009 0.00711713 0.109883 0.263996 0.446034 0.181772
875.43 0.937995 0.738883 0.00705206 0.108312 0.262701 0.443451 0.1805
876.964 0.956029 0.748845 0.00698791 0.106764 0.261429 0.440891 0.17924
878.499 0.944485 0.758893 0.00692466 0.105237 0.259125 0.438351 0.177994
880.033 0.938537 0.769029 0.00686231 0.104035 0.256833 0.435833 0.176761
881.568 0.92215 0.779252 0.00680082 0.103034 0.254608 0.433336 0.17554
883.103 0.929658 0.789563 0.00674019 0.102048 0.252411 0.430859 0.174332
884.637 0.940174 0.799962 0.00668039 0.101075 0.2488 0.428404 0.173136
886.172 0.908053 0.810449 0.00662179 0.100254 0.245159 0.425968 0.171952
887.706 0.918857 0.821025 0.00656461 0.0995325 0.243307 0.423552 0.170668
889.241 0.93199 0.831688 0.00650819 0.0988204 0.241599 0.421157 0.169125
890.776 0.925411 0.84244 0.00645252 0.0981178 0.239561 0.418781 0.167641
892.31 0.897783 0.853281 0.00639759 0.0972011 0.237528 0.416424 0.166176
893.845 0.854708 0.864211 0.00634339 0.0961609 0.234965 0.414087 0.16473
895.379 0.794201 0.875229 0.0062899 0.095134 0.232399 0.411769 0.163302
896.914 0.673982 0.886337 0.00623711 0.0941204 0.229854 0.40947 0.161893
898.449 0.641928 0.897534 0.006185 0.0933092 0.227341 0.40719 0.160502
899.983 0.739366 0.90882 0.00613358 0.0926418 0.225502 0.404928 0.159128
901.518 0.63485 0.920195 0.00608282 0.0919828 0.223755 0.402684 0.157772
903.053 0.69707 0.93166 0.00603271 0.0913319 0.221466 0.400459 0.156433
904.587 0.828435 0.943215 0.00598325 0.0905021 0.219138 0.398251 0.155111
906.122 0.758893 0.954859 0.00593442 0.0895417 0.216678 0.396062 0.153806
907.656 0.647486 0.966594 0.0058864 0.0885938 0.214232 0.393897 0.15252
909.191 0.689099 0.978418 0.00583917 0.0876579 0.213064 0.391757 0.151255
910.726 0.656168 0.990332 0.00579253 0.0865251 0.212047 0.389634 0.150009
912.26 0.673163 1.00234 0.00574647 0.0852635 0.210923 0.387528 0.148792
913.795 0.62687 1.01443 0.00570098 0.084017 0.209797 0.385438 0.147591
915.329 0.64479 1.02661 0.00565606 0.0827853 0.206507 0.383365 0.146401
916.864 0.709274 1.03889 0.00561169 0.0817198 0.202973 0.381308 0.145223
918.399 0.650939 1.05125 0.00556787 0.0807869 0.199946 0.379268 0.144059
919.933 0.743782 1.06371 0.00552458 0.0798652 0.197034 0.377244 0.142909
921.468 0.742951 1.07626 0.00548183 0.0789545 0.195705 0.375235 0.141772
923.003 0.744981 1.08889 0.00543959 0.0781394 0.194633 0.373242 0.140649
924.537 0.715914 1.10162 0.00539787 0.0774017 0.193082 0.371265 0.13954
926.072 0.709343 1.11444 0.00535664 0.0766727 0.191462 0.369303 0.138443
927.606 0.667523 1.12734 0.00531592 0.0759522 0.189991 0.367356 0.137359
929.141 0.534473 1.14034 0.00527568 0.0752344 0.188563 0.365424 0.136288
930.676 0.416636 1.15343 0.00523593 0.0745202 0.186848 0.363508 0.135229
932.21 0.289836 1.16661 0.00519664 0.0738142 0.185096 0.361606 0.134182
933.745 0.170498 1.17988 0.00515782 0.0731161 0.183704 0.359719 0.133147
935.279 0.225856 1.19324 0.00511946 0.072462 0.182395 0.357846 0.132167
936.814 0.163015 1.20669 0.00508155 0.0718471 0.18082 0.355987 0.131265
938.349 0.269709 1.22023 0.00504409 0.071239 0.179199 0.354143 0.130372
939.883 0.463293 1.23386 0.00500706 0.0706375 0.177442 0.352313 0.129488
941.418 0.385894 1.24759 0.00497046 0.0698467 0.175665 0.350497 0.128624
942.952 0.284377 1.2614 0.00493429 0.0688742 0.174458 0.348695 0.127771
944.487 0.325935 1.2753 0.00489854 0.0679121 0.17341 0.346906 0.126925
946.022 0.198438 1.2893 0.0048632 0.0669604 0.172011 0.345131 0.126089
947.556 0.31722 1.30338 0.00482826 0.0660484 0.170525 0.343369 0.12526
949.091 0.462442 1.31756 0.00479373 0.0651733 0.168973 0.341621 0.12444
950.626 0.35776 1.33182 0.00475956 0.0643077 0.167417 0.339885 0.123627
952.16 0.280874 1.34618 0.00472576 0.0634513 0.165176 0.33816 0.122822
953.695 0.39954 1.36062 0.00469234 0.0627702 0.162747 0.336449 0.122024
955.229 0.338198 1.37516 0.00465876 0.0622707 0.161731 0.33475 0.121235
956.764 0.284251 1.38978 0.00462557 0.0617764 0.16116 0.333064 0.120453
958.299 0.434986 1.4045 0.00459275 0.0612873 0.160497 0.33139 0.119679
959.833 0.412852 1.4193 0.0045603 0.0608033 0.159225 0.329729 0.118903
961.368 0.454042 1.4342 0.00452821 0.0603243 0.157967 0.32808 0.118126
962.902 0.498854 1.44918 0.00449647 0.0598503 0.156721 0.326444 0.117358
964.437 0.478328 1.46426 0.00446509 0.0593812 0.155489 0.324819 0.116596
965.972 0.502778 1.47942 0.00443406 0.0589169 0.154269 0.323207 0.115846
967.506 0.578186 1.49467 0.00440337 0.0584573 0.153061 0.321606 0.115109
969.041 0.684111 1.51001 0.00437302 0.0580024 0.151866 0.320017 0.114378
970.575 0.68028 1.52545 0.004343 0.0575521 0.150683 0.31844 0.113655
972.11 0.678714 1.54097 0.0043133 0.0571063 0.149512 0.316874 0.112939
973.645 0.586372 1.55657 0.00428393 0.056665 0.148352 0.31532 0.11223
975.179 0.586649 1.57227 0.00425488 0.0562281 0.147204 0.313777 0.111527
976.714 0.61955 1.58806 0.00422615 0.0557956 0.146068 0.312246 0.110831
978.249 0.620821 1.60393 0.00419772 0.0553673 0.144943 0.310725 0.110142
979.783 0.611938 1.6199 0.0041696 0.0549432 0.143828 0.309215 0.109459
981.318 0.706643 1.63595 0.00414178 0.0545233 0.142725 0.307716 0.108782
982.852 0.672124 1.65209 0.00411425 0.0541075 0.141635 0.306228 0.108112
984.387 0.718299 1.66832 0.00408702 0.0536957 0.140557 0.304751 0.10745
985.922 0.745918 1.68463 0.00406008 0.0532879 0.13949 0.303284 0.106795
987.456 0.737154 1.70103 0.00403343 0.052884 0.138432 0.301828 0.106147
988.991 0.748928 1.71752 0.00400705 0.0524839 0.137386 0.300383 0.105504
990.525 0.743467 1.7341 0.00400142 0.052124 0.136406 0.29897 0.104884
992.06 0.750195 1.75076 0.00399695 0.0517694 0.135441 0.297574 0.104256
993.595 0.747282 1.76751 0.00399262 0.0514183 0.134484 0.296187 0.103631
995.129 0.751383 1.78435 0.00398843 0.0510706 0.133537 0.294811 0.103012
996.664 0.742779 1.80128 0.00398438 0.0507262 0.132599 0.293444 0.102399
998.198 0.73881 1.81829 0.00398047 0.0503851 0.13167 0.292087 0.101791
999.733 0.736187 1.83538 0.0039767 0.0500472 0.13075 0.29074 0.101189
1001.27 0.740037 1.85256 0.00397305 0.0497125 0.129839 0.289402 0.100592
1002.8 0.733161 1.86983 0.00396954 0.049381 0.128936 0.288073 0.100001
1004.34 0.709336 1.88718 0.00396616 0.0490526 0.128041 0.286754 0.0994157
1005.87 0.708567 1.90462 0.00396291 0.0487273 0.127156 0.285444 0.0988354
1007.41 0.727254 1.92215 0.00395979 0.048405 0.126278 0.284143 0.0982603
1008.94 0.720142 1.93975 0.00395678 0.0480857 0.125408 0.282851 0.0976934
1010.48 0.72087 1.95745 0.0039539 0.0477694 0.124547 0.281568 0.097132
1012.01 0.718758 1.97522 0.00395115 0.0474559 0.123697 0.280294 0.0965757
1013.54 0.719282 1.99308 0.0039485 0.0471453 0.122857 0.279028 0.0960244
1015.08 0.708417 2.01103 0.00394598 0.0468376 0.122026 0.277772 0.0954779
1016.61 0.706428 2.02905 0.00394357 0.0465326 0.121201 0.276524 0.0949288
1018.15 0.710443 2.04717 0.00390918 0.0461749 0.120301 0.275272 0.0943497
1019.68 0.695734 2.06536 0.00386997 0.0458113 0.119396 0.274025 0.0937725
1021.22 0.699127 2.08364 0.00383107 0.0454508 0.118498 0.272787 0.0932003
1022.75 0.693747 2.102 0.00379247 0.0450934 0.117608 0.271556 0.0926331
1024.29 0.692574 2.12044 0.00375417 0.0447389 0.116726 0.270334 0.0920709
1025.82 0.696569 2.13896 0.00371616 0.0443874 0.115851 0.26912 0.0915135
1027.36 0.693335 2.15757 0.00367845 0.0440389 0.114984 0.267915 0.090961
1028.89 0.687107 2.17625 0.00364102 0.0436933 0.114124 0.266717 0.0904132
1030.43 0.689193 2.19502 0.00360388 0.0433505 0.113271 0.265527 0.0898702
1031.96 0.68785 2.21387 0.00356703 0.0430105 0.112426 0.264345 0.0893322
1033.49 0.678118 2.2328 0.00353038 0.0426733 0.111588 0.26317 0.0888165
1035.03 0.682331 2.2518 0.00349385 0.042339 0.110757 0.262004 0.088305
1036.56 0.678045 2.27089 0.00345759 0.0420073 0.109933 0.260844 0.0877977
1038.1 0.672177 2.29006 0.00342161 0.0416783 0.109116 0.259693 0.0872946
1039.63 0.67341 2.30931 0.00338589 0.041352 0.108306 0.258549 0.0867957
1041.17 0.6718 2.32864 0.00335045 0.0410282 0.107502 0.257413 0.0863008
1042.7 0.66726 2.34804 0.00331526 0.0407071 0.106705 0.256283 0.0858241
1044.24 0.667428 2.36753 0.00328034 0.0403886 0.105915 0.255161 0.0853559
1045.77 0.651112 2.38709 0.00324567 0.0400726 0.105131 0.254047 0.0848915
1047.31 0.658715 2.40673 0.00321126 0.0397591 0.104353 0.252939 0.0844307
1048.84 0.659562 2.42644 0.0031771 0.039448 0.103582 0.251839 0.0839735
1050.38 0.654848 2.44624 0.00315278 0.0391792 0.102845 0.250751 0.0835255
1051.91 0.651543 2.46611 0.00313512 0.0389282 0.102155 0.249668 0.0830828
1053.44 0.647976 2.48606 0.00311762 0.0386791 0.101471 0.248592 0.0826436
1054.98 0.648428 2.50608 0.00310029 0.038432 0.100792 0.247523 0.082208
1056.51 0.645593 2.52618 0.00308312 0.0381869 0.10012 0.24646 0.0817772
1058.05 0.63724 2.54635 0.0030661 0.0379437 0.0994521 0.245405 0.0813557
1059.58 0.628719 2.5666 0.00304924 0.0377024 0.0987902 0.244357 0.0809376
1061.12 0.622556 2.58693 0.00303253 0.037463 0.0981337 0.243315 0.0805226
1062.65 0.625962 2.60733 0.00301597 0.0372255 0.0974824 0.24228 0.0801109
1064.19 0.631431 2.6278 0.00299957 0.0369897 0.0968365 0.241251 0.0797024
1065.72 0.620473 2.64834 0.00298331 0.0367559 0.0961958 0.240229 0.079297
1067.26 0.620095 2.66896 0.0029672 0.0365238 0.0955603 0.239214 0.0789006
1068.79 0.593206 2.68966 0.00295123 0.0362935 0.0949298 0.238205 0.0785287
1070.33 0.608567 2.71042 0.00293541 0.0360649 0.0943044 0.237203 0.0781596
1071.86 0.615535 2.73126 0.00291973 0.0358381 0.0936839 0.236207 0.0777931
1073.39 0.610711 2.75217 0.00290419 0.035613 0.0930684 0.235217 0.0774293
1074.93 0.59458 2.77315 0.00288878 0.0353896 0.0924577 0.234233 0.0770681
1076.46 0.609901 2.7942 0.00287351 0.035168 0.0918519 0.233256 0.0767094
1078 0.603212 2.81532 0.00285838 0.0349479 0.0912508 0.232285 0.0763534
1079.53 0.600732 2.83651 0.00284338 0.0347295 0.0906798 0.231319 0.0759999
1081.07 0.581409 2.85777 0.00282852 0.0345128 0.0901233 0.23036 0.0756471
1082.6 0.594663 2.8791 0.00281378 0.0342976 0.0895712 0.229407 0.0752933
1084.14 0.580542 2.90051 0.00279917 0.0340841 0.0890233 0.22846 0.0749421
1085.67 0.566981 2.92197 0.00278469 0.0338721 0.0884796 0.227519 0.0745934
1087.21 0.572367 2.94351 0.00277034 0.0336617 0.0879402 0.226583 0.0742472
1088.74 0.582816 2.96512 0.00275611 0.0334528 0.0874048 0.225654 0.0739035
1090.28 0.564708 2.98679 0.00274201 0.0332454 0.0868736 0.22473 0.0735623
1091.81 0.582592 3.00853 0.00272802 0.0330396 0.0863464 0.223812 0.0732211
1093.34 0.520593 3.03034 0.00271419 0.0328353 0.0858236 0.222901 0.072863
1094.88 0.522965 3.05221 0.00270057 0.0326327 0.085306 0.222004 0.0725104
1096.41 0.534376 3.07415 0.00268707 0.0324315 0.0847922 0.221111 0.0721603
1097.95 0.50682 3.09615 0.00267368 0.0322318 0.0842824 0.220225 0.0718129
1099.48 0.49712 3.11822 0.00266041 0.0320335 0.0837763 0.219343 0.0714679
1101.02 0.496467 3.14035 0.00264725 0.0318366 0.0832739 0.218467 0.0711255
1102.55 0.467472 3.16255 0.00263419 0.031641 0.0827753 0.217596 0.0707856
1104.09 0.471015 3.18481 0.00262125 0.0314469 0.0822803 0.216731 0.0704482
1105.62 0.439011 3.20714 0.00260841 0.0312541 0.081789 0.21587 0.0701198
1107.16 0.47253 3.22953 0.00259569 0.0310627 0.0813013 0.215015 0.0698003
1108.69 0.413668 3.25198 0.00258306 0.0308726 0.0808171 0.214165 0.069483
1110.23 0.445786 3.27449 0.00257054 0.0306838 0.0803365 0.21332 0.0691679
1111.76 0.393866 3.29706 0.00255813 0.0304964 0.0798824 0.21248 0.068855
1113.29 0.27773 3.3197 0.00254581 0.0303102 0.0794332 0.211645 0.0685442
1114.83 0.258415 3.34239 0.0025336 0.0301253 0.0789873 0.210815 0.0682356
1116.36 0.15709 3.36515 0.00252149 0.0299417 0.0785445 0.20999 0.0679291
1117.9 0.203497 3.38797 0.00250948 0.0297593 0.0781049 0.20917 0.0676225
1119.43 0.125602 3.41084 0.00249756 0.0295782 0.0776685 0.208355 0.0673037
1120.97 0.18443 3.43378 0.00248574 0.0293983 0.0772351 0.207544 0.0669871
1122.5 0.105025 3.45677 0.00247402 0.0292197 0.0768048 0.206739 0.0666728
1124.04 0.110006 3.47982 0.00246239 0.0290422 0.0763775 0.205938 0.0663606
1125.57 0.0913248 3.50293 0.00245086 0.0288659 0.0759533 0.205141 0.0660507
1127.11 0.151104 3.5261 0.00243973 0.0286908 0.075532 0.20435 0.0657429
1128.64 0.103507 3.54932 0.00243289 0.0285169 0.0751136 0.203563 0.0654372
1130.18 0.109986 3.5726 0.00242608 0.0283441 0.0746982 0.202781 0.0651234
1131.71 0.251957 3.59593 0.0024193 0.0281725 0.0742857 0.202003 0.0648066
1133.24 0.126046 3.61933 0.00241255 0.028002 0.073876 0.20123 0.0644921
1134.78 0.0212699 3.64277 0.00240584 0.0278327 0.0734692 0.200461 0.0641799
1136.31 0.17865 3.66627 0.00239912 0.0276643 0.0730647 0.199693 0.0638688
1137.85 0.216126 3.68982 0.00239244 0.0274971 0.072653 0.19893 0.0635599
1139.38 0.282226 3.71343 0.00238579 0.027331 0.0722334 0.198172 0.0632533
1140.92 0.19854 3.73709 0.00237916 0.027166 0.0718167 0.197417 0.0629489
1142.45 0.264136 3.76081 0.00237258 0.0270021 0.0714028 0.196668 0.0626466
1143.99 0.11591 3.78457 0.00236602 0.0268392 0.0709917 0.195922 0.0623806
1145.52 0.152087 3.80839 0.0023595 0.0266773 0.0705833 0.195181 0.0621396
1147.06 0.07102 3.83226 0.00235301 0.0265165 0.0701778 0.194444 0.0619001
1148.59 0.240076 3.85618 0.00234654 0.0263568 0.069775 0.193711 0.0616621
1150.13 0.131869 3.88015 0.00234012 0.026198 0.0693749 0.192983 0.0614254
1151.66 0.232573 3.90417 0.00233372 0.0260403 0.0689775 0.192258 0.0611902
1153.19 0.219534 3.92824 0.00232735 0.0258836 0.0685827 0.191538 0.0609563
1154.73 0.266896 3.95235 0.00232102 0.0257279 0.0681906 0.190822 0.0607417
1156.26 0.289776 3.97652 0.00231471 0.0255731 0.0678011 0.19011 0.060532
1157.8 0.312289 4.00073 0.00230844 0.0254193 0.0674141 0.189402 0.0603235
1159.33 0.320141 4.02499 0.00230219 0.0252665 0.0670297 0.188697 0.060116
1160.87 0.339434 4.0493 0.00229598 0.0251147 0.0666479 0.187997 0.0599096
1162.4 0.397677 4.07366 0.00228979 0.0249638 0.0662685 0.187301 0.0597042
1163.94 0.406107 4.09806 0.00228364 0.0248138 0.0658824 0.186609 0.0594999
1165.47 0.382163 4.12251 0.00227751 0.0246648 0.0654737 0.185921 0.0592967
1167.01 0.410016 4.147 0.00227142 0.0245234 0.0650676 0.185236 0.0590946
1168.54 0.421464 4.17154 0.00226535 0.024383 0.0646641 0.184556 0.0588917
1170.08 0.457948 4.19612 0.00225932 0.0242435 0.0642633 0.183879 0.0586589
1171.61 0.452285 4.22074 0.00225331 0.0241049 0.0638651 0.183206 0.0584275
1173.14 0.439178 4.24541 0.00224733 0.0239672 0.0634695 0.182536 0.0581974
1174.68 0.415319 4.27012 0.00223759 0.0238239 0.0630667 0.181867 0.057966
1176.21 0.475842 4.29487 0.00222003 0.0236685 0.0626462 0.181192 0.0577295
1177.75 0.388298 4.31967 0.00220254 0.023514 0.0622283 0.180522 0.0574944
1179.28 0.471547 4.3445 0.00218512 0.0233604 0.0618131 0.179854 0.057265
1180.82 0.452501 4.36938 0.00216778 0.0232077 0.0614005 0.179191 0.057037
1182.35 0.363838 4.39429 0.00215051 0.0230559 0.0609905 0.178531 0.0568103
1183.89 0.421988 4.41925 0.00213331 0.022905 0.0605995 0.177875 0.056585
1185.42 0.436783 4.44425 0.00211618 0.0227549 0.060232 0.177222 0.0563609
1186.96 0.456696 4.46928 0.00209913 0.0226057 0.0598667 0.176573 0.0561381
1188.49 0.374591 4.49435 0.00208214 0.0224574 0.0595036 0.175927 0.0559166
1190.03 0.461995 4.51947 0.00206522 0.0223099 0.0591428 0.175285 0.0556965
1191.56 0.461576 4.54461 0.00204837 0.0221633 0.0587842 0.174647 0.0554775
1193.09 0.455712 4.5698 0.0020316 0.0220175 0.0584278 0.174012 0.0552598
1194.63 0.455103 4.59502 0.00201489 0.0218726 0.0580736 0.17338 0.055066
1196.16 0.438803 4.62028 0.00199825 0.0217284 0.0577216 0.172752 0.0548946
1197.7 0.446972 4.64557 0.00198167 0.0215851 0.0573717 0.172127 0.054724
1199.23 0.384287 4.6709 0.00196517 0.0214426 0.057024 0.171505 0.0545541
1200 0.44825 4.68358 0.00195694 0.0213717 0.0568509 0.171196 0.0544694