File: forSETO2021spectra.dat
# wavelength[nm] Solar Irradiance[W/m^2/nm] BB intensity@1273.15K[W/m^2/nm] Au (3e-08 m core + 1.5e-08 m shell) SiC (8e-08 m core + 2e-08 m shell) B4C (8e-08 m core + 3e-08 m shell) TiN (5e-08 m core + 1.25e-08 m shell) ZrN (3.5e-08 m core + 1e-08 m shell) CeO2 (5e-08 m core + 1e-08 m shell) Au (1.5e-08 m core + 1.5e-08 m shell)
280 4.7309e-23 1.95984e-10 1.77882 1.46888 1.51265 1.63821 1.61683 1.6474 1.94122
282.302 3.21685e-18 2.61538e-10 1.79903 1.46236 1.50317 1.63685 1.62115 1.65603 1.91308
284.604 3.63374e-15 3.47278e-10 1.81648 1.45525 1.49325 1.63409 1.6252 1.66192 1.88674
286.906 2.37886e-12 4.58885e-10 1.83154 1.44737 1.48282 1.62996 1.62818 1.66533 1.86016
289.208 1.19076e-09 6.03483e-10 1.84164 1.44054 1.47351 1.62549 1.62769 1.66595 1.83555
291.51 1.12183e-07 7.8997e-10 1.84656 1.43559 1.46595 1.62176 1.62351 1.66471 1.81409
293.812 3.45674e-06 1.02941e-09 1.85045 1.42949 1.45696 1.61706 1.61932 1.66215 1.79248
296.113 5.32217e-05 1.33551e-09 1.85352 1.41423 1.43689 1.60365 1.61863 1.65069 1.77084
298.415 0.000346375 1.72517e-09 1.85168 1.39719 1.41493 1.58829 1.61657 1.63556 1.7492
300.717 0.00154265 2.21915e-09 1.84526 1.37881 1.39161 1.57139 1.61324 1.61772 1.72749
303.019 0.00716682 2.84284e-09 1.83431 1.36966 1.37723 1.56345 1.60572 1.60586 1.70564
305.321 0.0179118 3.62721e-09 1.82208 1.3614 1.36374 1.55688 1.59809 1.59517 1.68353
307.623 0.0361768 4.60985e-09 1.80202 1.36086 1.35383 1.56043 1.58828 1.58744 1.66143
309.925 0.0497931 5.83624e-09 1.79151 1.3639 1.35032 1.56835 1.58515 1.58899 1.63936
312.227 0.0959204 7.36123e-09 1.78559 1.37088 1.35331 1.58031 1.58097 1.59725 1.61555
314.529 0.130925 9.2507e-09 1.77937 1.37714 1.35546 1.59222 1.57675 1.60546 1.59182
316.831 0.164395 1.15835e-08 1.77707 1.3983 1.36997 1.62214 1.56648 1.62824 1.56826
319.133 0.202363 1.44539e-08 1.77331 1.41866 1.38518 1.65007 1.55039 1.65086 1.54574
321.435 0.239976 1.79738e-08 1.76609 1.43923 1.40162 1.67706 1.52761 1.67329 1.5241
323.736 0.261265 2.22761e-08 1.75421 1.46428 1.42169 1.70854 1.49482 1.69831 1.50262
326.038 0.383197 2.75177e-08 1.72249 1.51141 1.46084 1.75963 1.42286 1.73289 1.48131
328.34 0.365098 3.38837e-08 1.66517 1.5591 1.499 1.80776 1.32778 1.74941 1.46551
330.642 0.420782 4.15916e-08 1.61467 1.58359 1.52242 1.83147 1.26153 1.75244 1.45043
332.944 0.43053 5.08961e-08 1.55331 1.6096 1.54835 1.85452 1.18931 1.74851 1.43539
335.246 0.45859 6.2095e-08 1.47546 1.63921 1.5822 1.87572 1.10624 1.73876 1.42092
337.548 0.403733 7.55352e-08 1.39213 1.66778 1.61763 1.89228 1.02372 1.7244 1.41416
339.85 0.493591 9.16196e-08 1.33959 1.68169 1.64173 1.8963 0.976914 1.73322 1.40754
342.152 0.494905 1.10816e-07 1.28772 1.69539 1.66654 1.89685 0.931583 1.74325 1.40105
344.454 0.404492 1.33663e-07 1.23694 1.70881 1.69182 1.89331 0.88779 1.75182 1.39473
346.756 0.490389 1.60785e-07 1.19025 1.7219 1.71723 1.88504 0.845619 1.75402 1.38988
349.058 0.467068 1.92896e-07 1.1454 1.73479 1.74234 1.8715 0.805043 1.74161 1.38515
351.359 0.536263 2.3082e-07 1.10254 1.74723 1.76655 1.85221 0.765978 1.70213 1.38055
353.661 0.582835 2.75497e-07 1.06177 1.75942 1.78937 1.82683 0.728366 1.61897 1.37607
355.963 0.556542 3.28e-07 1.03327 1.76821 1.80561 1.79978 0.700898 1.51761 1.36976
358.265 0.413722 3.89554e-07 1.01481 1.77425 1.81672 1.77356 0.686052 1.42234 1.3629
360.567 0.559258 4.6155e-07 0.997393 1.78046 1.82761 1.74488 0.671895 1.3073 1.35608
362.869 0.597508 5.45566e-07 0.980981 1.78732 1.83849 1.71405 0.658379 1.17666 1.34929
365.171 0.645027 6.43388e-07 0.965454 1.79506 1.84949 1.68143 0.64554 1.03591 1.34228
367.473 0.709883 7.57035e-07 0.950541 1.80282 1.8608 1.64737 0.633363 0.890976 1.33433
369.775 0.750395 8.88781e-07 0.936469 1.811 1.87291 1.61223 0.621704 0.747349 1.32644
372.077 0.669543 1.04118e-06 0.923712 1.81883 1.88583 1.57697 0.611097 0.614704 1.31861
374.379 0.553272 1.21712e-06 0.916171 1.82385 1.89787 1.54575 0.605788 0.530312 1.31082
376.681 0.681361 1.4198e-06 0.909189 1.82805 1.91099 1.51483 0.600796 0.454059 1.3026
378.982 0.747053 1.65283e-06 0.902753 1.83129 1.92481 1.48438 0.596099 0.385623 1.29377
381.284 0.720908 1.92023e-06 0.896726 1.83331 1.93903 1.45453 0.591983 0.324445 1.285
383.586 0.452435 2.22648e-06 0.891087 1.83389 1.95334 1.4254 0.588377 0.269843 1.27629
385.888 0.626058 2.57655e-06 0.885817 1.83299 1.96715 1.39708 0.584254 0.221105 1.26764
388.19 0.634124 2.97598e-06 0.880637 1.83048 1.98026 1.36963 0.580207 0.177533 1.25866
390.492 0.803604 3.43089e-06 0.8768 1.82557 1.99025 1.34601 0.578597 0.154408 1.24886
392.794 0.555074 3.94808e-06 0.873837 1.81893 1.99798 1.32445 0.578076 0.13988 1.23916
395.096 0.817822 4.53502e-06 0.870977 1.81113 2.00415 1.30375 0.577649 0.126783 1.22955
397.398 0.587916 5.19999e-06 0.868213 1.80239 2.00862 1.28388 0.577304 0.11493 1.22004
399.7 1.10689 5.95207e-06 0.865537 1.79295 2.01123 1.26485 0.578293 0.104156 1.21062
402.002 1.20603 6.80128e-06 0.860235 1.7831 2.01182 1.24662 0.57945 0.0943253 1.20321
404.304 1.1713 7.7586e-06 0.854779 1.7731 2.01028 1.22916 0.580727 0.0853179 1.19607
406.606 1.11053 8.83605e-06 0.849079 1.76361 2.00689 1.21256 0.586821 0.0773765 1.18904
408.907 1.22263 1.00468e-05 0.842746 1.7555 2.0023 1.1973 0.592741 0.0727228 1.18211
411.209 1.18929 1.14052e-05 0.8365 1.74792 1.99615 1.18257 0.59876 0.0683701 1.17527
413.511 1.1905 1.29271e-05 0.830355 1.74105 1.98846 1.16964 0.604884 0.0642899 1.16874
415.813 1.25556 1.46294e-05 0.824466 1.73489 1.9792 1.1701 0.611118 0.0604565 1.16445
418.115 1.18324 1.65309e-05 0.818688 1.72944 1.9684 1.17107 0.617195 0.0568473 1.16025
420.417 1.18679 1.86517e-05 0.813019 1.72466 1.95612 1.17254 0.62337 0.0534422 1.15615
422.719 1.22961 2.10138e-05 0.807457 1.72043 1.94235 1.17447 0.629661 0.0502234 1.15214
425.021 1.24806 2.36411e-05 0.801999 1.71658 1.92712 1.17687 0.636073 0.0471747 1.14821
427.323 1.17611 2.65592e-05 0.796645 1.71295 1.91053 1.17972 0.642614 0.0442818 1.14438
429.625 0.957819 2.97959e-05 0.791583 1.70938 1.89263 1.183 0.649757 0.041532 1.14204
431.927 1.28204 3.33815e-05 0.786649 1.70564 1.87358 1.1867 0.657687 0.0389137 1.13992
434.229 1.16034 3.73482e-05 0.781825 1.70154 1.85352 1.19083 0.666057 0.0364165 1.13789
436.53 1.38096 4.1731e-05 0.777058 1.69693 1.83275 1.19535 0.675538 0.0340335 1.13596
438.832 1.18526 4.65674e-05 0.772226 1.69202 1.81238 1.20036 0.685143 0.0328233 1.13411
441.134 1.34388 5.18978e-05 0.767499 1.68625 1.79155 1.20573 0.695003 0.0316998 1.13236
443.436 1.4292 5.77655e-05 0.761808 1.67949 1.77044 1.21147 0.705122 0.0306232 1.13034
445.738 1.35037 6.42168e-05 0.753447 1.67167 1.74924 1.21756 0.715516 0.0295904 1.12744
448.04 1.50796 7.13017e-05 0.745188 1.66276 1.72815 1.22401 0.7262 0.0285985 1.12459
450.342 1.57926 7.90731e-05 0.737029 1.65277 1.70723 1.23082 0.737193 0.0276451 1.12177
452.644 1.4719 8.75879e-05 0.72897 1.64176 1.6867 1.23798 0.749515 0.0267274 1.11899
454.946 1.523 9.69068e-05 0.721009 1.62984 1.66677 1.2455 0.764144 0.0258435 1.11625
457.248 1.57698 0.000107094 0.713145 1.61718 1.64751 1.25339 0.77927 0.0249913 1.11354
459.55 1.5336 0.00011822 0.70444 1.60387 1.62899 1.26164 0.795724 0.0241688 1.11374
461.852 1.5953 0.000130356 0.690477 1.59012 1.61128 1.27026 0.81296 0.0233745 1.13035
464.153 1.55142 0.000143581 0.676398 1.57606 1.59446 1.27925 0.830802 0.0226066 1.14741
466.455 1.53542 0.000157978 0.662197 1.56179 1.57859 1.28863 0.849283 0.0218637 1.1649
468.757 1.56667 0.000173634 0.647875 1.54737 1.5636 1.2984 0.868439 0.0211444 1.1828
471.059 1.53781 0.000190643 0.63343 1.53297 1.54952 1.30856 0.888311 0.0204474 1.20106
473.361 1.55611 0.000209103 0.618863 1.51869 1.53635 1.31913 0.908937 0.0197715 1.21965
475.663 1.58177 0.000229119 0.604177 1.50461 1.52432 1.33011 0.929606 0.0191157 1.23852
477.965 1.62123 0.0002508 0.596342 1.49182 1.51447 1.34075 0.947415 0.0185917 1.27222
480.267 1.61799 0.000274263 0.596934 1.47968 1.50569 1.35161 0.965506 0.0181508 1.3255
482.569 1.61234 0.000299631 0.596912 1.468 1.49764 1.36285 0.984233 0.0177213 1.38255
484.871 1.56896 0.000327034 0.596176 1.45673 1.49042 1.37447 1.00406 0.0173028 1.44376
487.173 1.44433 0.000356608 0.594611 1.44604 1.48396 1.3865 1.02468 0.0168946 1.50956
489.475 1.53281 0.000388497 0.592089 1.43583 1.47827 1.39895 1.04596 0.0164966 1.58046
491.776 1.50313 0.000422851 0.588468 1.42611 1.47335 1.41182 1.06795 0.0161083 1.65701
494.078 1.56003 0.00045983 0.583589 1.41695 1.46908 1.42514 1.09065 0.0157292 1.73986
496.38 1.57779 0.000499601 0.580052 1.40828 1.46549 1.43947 1.1141 0.0153591 1.8238
498.682 1.55076 0.000542337 0.586214 1.40018 1.46258 1.45607 1.13832 0.0149977 1.8878
500.984 1.49855 0.000588223 0.591953 1.39264 1.4604 1.47267 1.16485 0.0146445 1.95002
503.286 1.5348 0.00063745 0.597162 1.38559 1.45869 1.48925 1.19291 0.0142993 2.00879
505.588 1.60048 0.00069022 0.601713 1.37911 1.45753 1.50579 1.22193 0.0139619 2.06192
507.89 1.52085 0.000746743 0.605449 1.37312 1.45689 1.52227 1.25194 0.0136319 2.10667
510.192 1.55362 0.000807238 0.608175 1.36766 1.45672 1.53868 1.28287 0.013309 2.13966
512.494 1.57021 0.000871935 0.609654 1.3628 1.45724 1.55499 1.31463 0.012993 2.15691
514.796 1.52263 0.000941074 0.609593 1.35846 1.45822 1.57119 1.34721 0.0126838 2.15399
517.098 1.27705 0.0010149 0.614005 1.35473 1.45956 1.58723 1.3806 0.012381 2.10674
519.399 1.4468 0.00109369 0.642156 1.35161 1.46114 1.60312 1.41478 0.0120845 1.96906
521.701 1.55873 0.00117769 0.673006 1.34904 1.46371 1.6188 1.4497 0.0117939 1.82092
524.003 1.59046 0.0012672 0.70699 1.34715 1.46653 1.63427 1.4819 0.0115093 1.66753
526.305 1.47537 0.00136251 0.744284 1.34584 1.46966 1.6494 1.51238 0.0111267 1.51365
528.607 1.57905 0.00146392 0.78576 1.34514 1.4733 1.66425 1.54332 0.0106991 1.36324
530.909 1.62151 0.00157176 0.832245 1.34519 1.47716 1.67881 1.5747 0.0102796 1.21933
533.211 1.45004 0.00168634 0.884705 1.34588 1.48139 1.69303 1.60645 0.00986791 1.08406
535.513 1.58756 0.00180802 0.944359 1.34734 1.48601 1.70689 1.6377 0.00946382 0.958718
537.815 1.55993 0.00193714 1.01276 1.34958 1.491 1.72036 1.66862 0.00906703 0.843909
540.117 1.4758 0.00207407 1.08614 1.35253 1.49654 1.7334 1.69943 0.00867739 0.753992
542.419 1.54042 0.0022192 1.16173 1.35645 1.50239 1.74598 1.73002 0.0082947 0.68929
544.721 1.55347 0.00237291 1.24698 1.36116 1.50851 1.75806 1.76026 0.00791869 0.630105
547.023 1.54801 0.00253561 1.34349 1.36669 1.51487 1.76962 1.7913 0.00754921 0.576008
549.324 1.54807 0.00270772 1.45319 1.37313 1.52157 1.78061 1.82271 0.00718604 0.52658
551.626 1.55793 0.00288968 1.5783 1.3804 1.52867 1.79101 1.85326 0.00682902 0.481426
553.928 1.55276 0.00308194 1.72135 1.38859 1.53608 1.80077 1.88274 0.006478 0.440176
556.23 1.5279 0.00328495 1.88517 1.39771 1.54359 1.80987 1.91097 0.00613275 0.402484
558.532 1.48699 0.00349919 2.07275 1.40772 1.55128 1.81827 1.93775 0.00579317 0.368033
560.834 1.54531 0.00372516 2.28697 1.41875 1.55921 1.82594 1.9619 0.00545906 0.33653
563.136 1.53669 0.00396335 2.53005 1.4307 1.56742 1.83285 1.98361 0.00513028 0.307708
565.438 1.48389 0.00421431 2.7733 1.44362 1.57603 1.83884 2.00254 0.00507836 0.284764
567.74 1.52164 0.00447855 3.0275 1.45746 1.58469 1.84401 2.01904 0.00504367 0.264412
570.042 1.47958 0.00475663 3.29174 1.47217 1.59351 1.84835 2.03299 0.00500961 0.245584
572.344 1.5156 0.00504913 3.55381 1.4878 1.60244 1.85184 2.04334 0.00497614 0.228151
574.646 1.48982 0.00535661 3.79496 1.50433 1.61125 1.85445 2.05111 0.00494324 0.211999
576.947 1.50036 0.00567969 3.99012 1.52162 1.62039 1.85617 2.05619 0.0049109 0.19702
579.249 1.48323 0.00601897 4.11096 1.53978 1.62958 1.85699 2.05852 0.00487915 0.183119
581.551 1.52163 0.00637509 4.13235 1.5586 1.63866 1.85688 2.05803 0.0048479 0.170209
583.853 1.54526 0.0067487 4.04061 1.57795 1.6473 1.85584 2.05467 0.00481719 0.158209
586.155 1.50039 0.00714045 3.83959 1.59773 1.65629 1.85385 2.04774 0.00478698 0.147049
588.457 1.40016 0.00755103 3.55052 1.61779 1.66507 1.85092 2.03758 0.0047573 0.136661
590.759 1.44323 0.00798113 3.20746 1.63795 1.67351 1.84704 2.0246 0.00472808 0.127212
593.061 1.45567 0.00843146 2.85752 1.65802 1.68167 1.8422 2.00887 0.00469935 0.119569
595.363 1.44665 0.00890275 2.51683 1.67784 1.68955 1.83641 1.99085 0.00467108 0.112407
597.665 1.46677 0.00939575 2.19977 1.69726 1.69701 1.82969 1.97107 0.00464328 0.105691
599.967 1.47481 0.00991122 1.9138 1.71597 1.70399 1.82203 1.9493 0.00461592 0.099388
602.269 1.44416 0.0104499 1.66131 1.73373 1.71057 1.81345 1.92564 0.00458899 0.0934696
604.57 1.49062 0.0110127 1.44146 1.75038 1.71654 1.80397 1.90022 0.0045625 0.0879084
606.872 1.48996 0.0116003 1.252 1.7654 1.72189 1.79366 1.87335 0.00445934 0.0826796
609.174 1.4738 0.0122136 1.08944 1.77846 1.72655 1.78262 1.84537 0.00419384 0.0777602
611.476 1.47158 0.0128534 0.949741 1.78937 1.73038 1.77075 1.81435 0.00393194 0.0731292
613.778 1.42747 0.0135206 0.829757 1.79783 1.73339 1.75807 1.78131 0.00367354 0.0687673
616.08 1.42954 0.014216 0.726632 1.80352 1.73554 1.74462 1.74747 0.00341858 0.0646564
618.382 1.46904 0.0149406 0.63785 1.80622 1.73676 1.73042 1.71295 0.00316697 0.06078
620.684 1.47821 0.0156953 0.564833 1.8057 1.73691 1.71495 1.67701 0.00291865 0.057428
622.986 1.41665 0.0164809 0.507685 1.80174 1.73605 1.69802 1.64048 0.00267352 0.054826
625.288 1.4022 0.0172985 0.457499 1.79419 1.73401 1.68088 1.60364 0.00243157 0.0523515
627.59 1.39535 0.018149 0.413284 1.78289 1.73068 1.66353 1.56663 0.00219268 0.0499972
629.892 1.39446 0.0190333 0.374207 1.76776 1.72617 1.646 1.52956 0.00195682 0.0477562
632.193 1.38063 0.0199524 0.339562 1.74887 1.72048 1.62832 1.49255 0.00172389 0.045622
634.495 1.43702 0.0209075 0.308755 1.72642 1.71344 1.6105 1.4557 0.00149388 0.0435888
636.797 1.45123 0.0218993 0.28128 1.70052 1.70488 1.59257 1.41919 0.00126669 0.0416508
639.099 1.46156 0.0229291 0.256709 1.6714 1.69479 1.57454 1.38305 0.00104228 0.0398029
641.401 1.43592 0.0239979 0.234674 1.63994 1.68364 1.55644 1.34731 0.000820592 0.0380402
643.703 1.44807 0.0251066 0.214863 1.6059 1.67133 1.53827 1.31245 0.000601575 0.036358
646.005 1.41497 0.0262565 0.197007 1.56962 1.6578 1.52006 1.27901 0.000385158 0.0347521
648.307 1.38191 0.0274486 0.18138 1.53198 1.64334 1.50199 1.24646 0.000333488 0.0332184
650.609 1.41133 0.028684 0.167353 1.49289 1.62767 1.48394 1.21457 0.000335321 0.0317532
652.911 1.42717 0.0299638 0.154774 1.45233 1.61086 1.46591 1.1833 0.000337124 0.0303778
655.213 1.31485 0.0312891 0.144024 1.41073 1.59309 1.44791 1.15266 0.000338912 0.0291731
657.515 1.31453 0.0326612 0.13417 1.36848 1.57456 1.42995 1.12269 0.000340678 0.0280179
659.817 1.3976 0.0340812 0.12512 1.32608 1.55485 1.41205 1.09339 0.000342429 0.0269097
662.118 1.3822 0.0355502 0.116795 1.28361 1.53415 1.39421 1.06467 0.000344157 0.0258464
664.42 1.40708 0.0370694 0.109126 1.24142 1.51268 1.37646 1.03659 0.000345863 0.0248257
666.722 1.41301 0.0386401 0.102049 1.19979 1.49071 1.3588 1.00925 0.000347555 0.0238458
669.024 1.43892 0.0402635 0.0955105 1.15873 1.46809 1.34123 0.983379 0.000349231 0.0229048
671.326 1.41048 0.0419408 0.0894603 1.11864 1.44488 1.32378 0.95844 0.000350885 0.0220007
673.628 1.40814 0.0436731 0.0838546 1.0795 1.42113 1.30645 0.934176 0.000352524 0.021132
675.93 1.41087 0.0454619 0.0786542 1.04131 1.39702 1.28924 0.910577 0.000354148 0.020297
678.232 1.40384 0.0473083 0.0738239 1.00443 1.3726 1.27217 0.887633 0.00035575 0.0194943
680.534 1.39402 0.0492136 0.069332 0.968619 1.34791 1.25524 0.865333 0.000357345 0.0187223
682.836 1.38548 0.0511791 0.0651501 0.93386 1.32299 1.23846 0.843664 0.000358909 0.0179797
685.138 1.37053 0.0532061 0.0612526 0.900115 1.29812 1.22184 0.822613 0.000360467 0.0172652
687.44 1.03521 0.0552958 0.0576163 0.867523 1.27243 1.20537 0.802167 0.000362009 0.0165776
689.741 1.16806 0.0574497 0.0545043 0.836027 1.24665 1.18907 0.78231 0.000363529 0.0159975
692.043 1.26855 0.0596689 0.051984 0.805679 1.22175 1.17295 0.762805 0.000365041 0.0155536
694.345 1.25503 0.0619549 0.0496186 0.776534 1.19787 1.15704 0.742919 0.000366524 0.0151243
696.647 1.31493 0.064309 0.0473901 0.74888 1.17298 1.14131 0.723643 0.000367984 0.0147092
698.949 1.29319 0.0667325 0.0452888 0.722334 1.14794 1.12575 0.70496 0.000369437 0.0143075
701.251 1.26628 0.0692268 0.0433057 0.697037 1.12406 1.11038 0.686855 0.000370868 0.0139189
703.553 1.293 0.0717932 0.0414326 0.673136 1.09976 1.09519 0.66931 0.000372291 0.0135427
705.855 1.31542 0.0744331 0.039662 0.650215 1.07624 1.08018 0.65231 0.000373699 0.0131786
708.157 1.30554 0.0771479 0.0379868 0.628166 1.0533 1.06537 0.635837 0.000375085 0.012826
710.459 1.31658 0.0799389 0.0364009 0.606981 1.03051 1.05074 0.619876 0.00037647 0.0124845
712.761 1.29546 0.0828075 0.0348982 0.586663 1.00863 1.03631 0.604452 0.000377841 0.0121537
715.063 1.25951 0.0857552 0.0334735 0.566965 0.98628 1.02206 0.589555 0.00037919 0.0118332
717.364 1.07885 0.0887832 0.0321218 0.548065 0.963972 1.00801 0.576458 0.000380538 0.0115225
719.666 0.964709 0.0918931 0.0308384 0.530036 0.942803 0.994151 0.564509 0.000381857 0.0112214
721.968 1.2358 0.0950862 0.0296191 0.512988 0.921663 0.980482 0.552887 0.000383183 0.0109295
724.27 1.05077 0.0983638 0.0284599 0.496636 0.90116 0.967005 0.541582 0.000384487 0.0106464
726.572 1.08342 0.101728 0.0273573 0.480774 0.881309 0.95372 0.530585 0.000385776 0.0103718
728.874 1.04577 0.105179 0.0263078 0.465443 0.862012 0.940626 0.519886 0.000387065 0.0101055
731.176 1.08492 0.108719 0.0255052 0.450717 0.84322 0.927711 0.509463 0.000388339 0.00991899
733.478 1.21508 0.112349 0.0247753 0.436532 0.824 0.914925 0.499263 0.000389628 0.0097533
735.78 1.20852 0.116071 0.0240749 0.422916 0.805082 0.902329 0.489336 0.000390917 0.00959159
738.082 1.22392 0.119886 0.0234024 0.409999 0.788215 0.889923 0.479683 0.000392191 0.00943374
740.384 1.2177 0.123795 0.0227566 0.398022 0.770585 0.877704 0.470259 0.000393454 0.00927963
742.686 1.23258 0.1278 0.0221359 0.386515 0.754243 0.865671 0.460579 0.000394709 0.00912914
744.987 1.24971 0.131903 0.0215392 0.375484 0.738621 0.853824 0.451169 0.000395954 0.00898217
747.289 1.2455 0.136104 0.0209652 0.364894 0.721418 0.842159 0.442019 0.00039719 0.00883862
749.591 1.23475 0.140406 0.020413 0.354703 0.706533 0.830676 0.433121 0.000398416 0.00869838
751.893 1.23253 0.144809 0.0198813 0.344878 0.691195 0.819373 0.424467 0.000399631 0.00856135
754.195 1.24128 0.149315 0.0193692 0.335413 0.675526 0.808248 0.416048 0.000400838 0.00842744
756.497 1.22265 0.153925 0.0188759 0.32624 0.661373 0.797298 0.407857 0.000402033 0.00829656
758.799 1.20154 0.158641 0.0184004 0.317239 0.647438 0.786523 0.399886 0.000403225 0.00816863
761.101 0.20782 0.163464 0.0179418 0.30856 0.633471 0.775919 0.392129 0.000404406 0.00804356
763.403 0.443676 0.168396 0.0174995 0.300231 0.619823 0.765485 0.384598 0.000405576 0.00792126
765.705 0.776641 0.173438 0.0170727 0.292228 0.60801 0.755219 0.37726 0.000406738 0.00780167
768.007 1.11389 0.178591 0.0166606 0.284503 0.594505 0.745119 0.37009 0.000407893 0.00768469
770.309 1.16321 0.183857 0.0162628 0.277162 0.581907 0.735181 0.363109 0.000409037 0.00757027
772.611 1.17737 0.189237 0.0158784 0.270085 0.570336 0.725405 0.356312 0.000410173 0.00745832
774.912 1.1771 0.194732 0.015507 0.263213 0.55782 0.715788 0.349692 0.000411306 0.00734879
777.214 1.1724 0.200344 0.0151512 0.256451 0.546427 0.706327 0.343244 0.000412431 0.00724077
779.516 1.16984 0.206074 0.014807 0.249911 0.535345 0.697021 0.336962 0.000413541 0.00713501
781.818 1.1652 0.211924 0.0144737 0.243659 0.524531 0.687866 0.330841 0.000414651 0.00703145
784.12 1.1542 0.217894 0.0141511 0.237671 0.51483 0.678864 0.324878 0.000415746 0.00693003
786.422 1.15321 0.223987 0.0138386 0.231874 0.505904 0.670009 0.319065 0.000416838 0.00683069
788.724 1.12703 0.230203 0.0135359 0.226263 0.495855 0.6613 0.3134 0.000417918 0.00673338
791.026 1.10553 0.236544 0.0132424 0.220828 0.4848 0.652734 0.308223 0.000418991 0.00663804
793.328 1.09068 0.24301 0.0129579 0.215608 0.47616 0.644308 0.303185 0.00042006 0.00654463
795.63 1.08124 0.249605 0.0126821 0.21073 0.467215 0.636021 0.298264 0.000421122 0.0064531
797.932 1.11068 0.256328 0.0124145 0.205998 0.458814 0.62787 0.293457 0.000422176 0.00636339
800.234 1.07526 0.26318 0.0121549 0.201374 0.450862 0.619853 0.288759 0.000423219 0.00627547
802.535 1.07494 0.270164 0.0119029 0.196854 0.44062 0.611968 0.284169 0.000424262 0.00618929
804.837 1.05835 0.277281 0.0116583 0.192467 0.432582 0.604213 0.279683 0.000425298 0.0061048
807.139 1.08537 0.284531 0.0114208 0.188474 0.425332 0.596585 0.275297 0.000426326 0.00602196
809.441 1.05529 0.291916 0.0111902 0.184641 0.418199 0.589082 0.27101 0.000427343 0.00594073
811.743 1.03361 0.299437 0.0109661 0.180968 0.410122 0.581703 0.266818 0.00042836 0.00586107
814.045 0.903185 0.307095 0.0107484 0.177639 0.401742 0.574444 0.262729 0.000429366 0.00578295
816.347 0.838985 0.314892 0.0105369 0.174401 0.394837 0.567305 0.258749 0.000430368 0.00570632
818.649 0.876187 0.322828 0.0103312 0.170993 0.390083 0.560283 0.254854 0.000431363 0.00563115
820.951 0.99096 0.330905 0.0101317 0.167419 0.385244 0.553388 0.251051 0.000432339 0.0055574
823.253 0.739009 0.339124 0.00993798 0.163942 0.379021 0.546615 0.247335 0.0004333 0.00548504
825.555 0.949638 0.347486 0.00974952 0.160814 0.372832 0.539952 0.243696 0.000434253 0.00541404
827.857 0.869136 0.355993 0.00958103 0.157823 0.36723 0.534224 0.240134 0.0004352 0.00535254
830.158 0.917263 0.364644 0.00942899 0.15491 0.359508 0.529258 0.236646 0.000436142 0.00529882
832.46 0.922914 0.373442 0.00928061 0.152089 0.352413 0.524358 0.23323 0.000437077 0.00524595
834.762 0.98678 0.382387 0.00913577 0.149337 0.346181 0.519523 0.229884 0.000438008 0.00519393
837.064 1.00855 0.391481 0.00899437 0.14635 0.340856 0.514751 0.226607 0.000438932 0.00514273
839.366 1.00657 0.400724 0.00885629 0.143089 0.334028 0.510042 0.223069 0.000439852 0.00509233
841.668 1.00137 0.410118 0.00872144 0.139907 0.328132 0.505393 0.219588 0.000440765 0.00504272
843.97 0.98688 0.419663 0.00858973 0.137026 0.322026 0.500806 0.216185 0.000441674 0.00499388
846.272 1.01136 0.429361 0.00846104 0.134272 0.315108 0.496278 0.212858 0.000442576 0.0049458
848.574 0.988607 0.439212 0.0083353 0.131649 0.31181 0.491808 0.209606 0.000443473 0.00489846
850.876 0.964838 0.449218 0.00821241 0.129573 0.307326 0.487396 0.206426 0.000444368 0.00485185
853.178 0.944654 0.459379 0.00809229 0.127546 0.302442 0.483041 0.203316 0.00044525 0.00480594
855.48 0.941856 0.469696 0.00797485 0.12561 0.297796 0.478741 0.200275 0.000446133 0.00476074
857.781 0.991894 0.48017 0.00786003 0.123771 0.292927 0.474496 0.197299 0.000447009 0.00471622
860.083 0.988046 0.490803 0.00774719 0.121971 0.288219 0.470288 0.194377 0.00044791 0.00467237
862.385 0.996806 0.501594 0.00763632 0.120056 0.283906 0.466115 0.191725 0.00044883 0.00462917
864.687 0.968219 0.512545 0.00752788 0.118142 0.280186 0.461996 0.189692 0.000449747 0.00458662
866.989 0.914739 0.523656 0.00742181 0.116243 0.276114 0.457929 0.187664 0.000450652 0.0045447
869.291 0.954796 0.534929 0.00731804 0.114134 0.272436 0.453913 0.185669 0.000451561 0.00450339
871.593 0.961573 0.546363 0.0072165 0.11207 0.268587 0.449948 0.183705 0.000452463 0.0044627
873.895 0.942184 0.557961 0.00711713 0.109883 0.263996 0.446034 0.181772 0.00045336 0.0044226
876.197 0.953435 0.569722 0.00701987 0.107535 0.262063 0.442168 0.179868 0.000454254 0.00438308
878.499 0.944485 0.581648 0.00692466 0.105237 0.259125 0.438351 0.177994 0.000455143 0.00434413
880.801 0.914781 0.593738 0.00683146 0.103533 0.255716 0.434582 0.176149 0.00045603 0.00430575
883.103 0.929658 0.605994 0.00674019 0.102048 0.252411 0.430859 0.174332 0.000456911 0.00426792
885.405 0.929381 0.618417 0.00665081 0.100619 0.246974 0.427183 0.172542 0.000457788 0.00423062
887.706 0.918857 0.631006 0.00656461 0.0995325 0.243307 0.423552 0.170668 0.00045866 0.00419419
890.008 0.923946 0.643763 0.00648026 0.098468 0.240586 0.419966 0.168381 0.000459529 0.0041583
892.31 0.897783 0.656689 0.00639759 0.0972011 0.237528 0.416424 0.166176 0.000460396 0.00412291
894.612 0.828203 0.669783 0.00631655 0.0956458 0.233678 0.412926 0.164013 0.000461258 0.004088
896.914 0.673982 0.683046 0.00623711 0.0941204 0.229854 0.40947 0.161893 0.000462117 0.00405356
899.216 0.590593 0.696479 0.00615921 0.0929745 0.226383 0.406056 0.159813 0.00046297 0.0040196
901.518 0.63485 0.710083 0.00608282 0.0919828 0.223755 0.402684 0.157772 0.000463821 0.0039861
903.82 0.816524 0.723857 0.0060079 0.0909866 0.220298 0.399353 0.15577 0.000464668 0.00395304
906.122 0.758893 0.737803 0.00593442 0.0895417 0.216678 0.396062 0.153806 0.000465512 0.00392044
908.424 0.674261 0.75192 0.00586271 0.0881245 0.213577 0.392825 0.151886 0.000466323 0.00388826
910.726 0.656168 0.76621 0.00579253 0.0865251 0.212047 0.389634 0.150009 0.000467114 0.00385652
913.028 0.628289 0.780672 0.00572365 0.0846384 0.210359 0.386481 0.14819 0.000467904 0.0038252
915.329 0.64479 0.795307 0.00565606 0.0827853 0.206507 0.383365 0.146401 0.00046869 0.00379429
917.631 0.643383 0.810115 0.00558971 0.0812519 0.201416 0.380286 0.144639 0.00046947 0.00376379
919.933 0.743782 0.825098 0.00552458 0.0798652 0.197034 0.377244 0.142909 0.000470249 0.00373368
922.235 0.710792 0.840254 0.00546064 0.0785115 0.195167 0.374237 0.141209 0.000471022 0.00370397
924.537 0.715914 0.855584 0.00539787 0.0774017 0.193082 0.371265 0.13954 0.000471793 0.00367465
926.839 0.773881 0.871089 0.00533622 0.0763114 0.190711 0.368327 0.137899 0.000472561 0.0036457
929.141 0.534473 0.886768 0.00527568 0.0752344 0.188563 0.365424 0.136288 0.000473324 0.00361713
931.443 0.361225 0.902623 0.00521622 0.0741662 0.185969 0.362555 0.134704 0.000474086 0.00358892
933.745 0.170498 0.918653 0.00515782 0.0731161 0.183704 0.359719 0.133147 0.000474842 0.00356108
936.047 0.161512 0.934858 0.00510045 0.0721537 0.181637 0.356915 0.131715 0.000475597 0.00353358
938.349 0.269709 0.951239 0.00504409 0.071239 0.179199 0.354143 0.130372 0.000476347 0.00350644
940.651 0.406847 0.967796 0.00498871 0.070337 0.176551 0.351403 0.129055 0.000477094 0.00347964
942.952 0.284377 0.984528 0.00493429 0.0688742 0.174458 0.348695 0.127771 0.000477837 0.00345317
945.254 0.32405 1.00144 0.00488082 0.0674349 0.17276 0.346017 0.126506 0.000478579 0.00342704
947.556 0.31722 1.01852 0.00482826 0.0660484 0.170525 0.343369 0.12526 0.000479316 0.00340123
949.858 0.196417 1.03578 0.0047766 0.0647394 0.168193 0.340752 0.124033 0.000480052 0.00337574
952.16 0.280874 1.05322 0.00472576 0.0634513 0.165176 0.33816 0.122822 0.000480792 0.00335057
954.462 0.385787 1.07083 0.0046755 0.0625198 0.162019 0.335598 0.121629 0.000481529 0.00332543
956.764 0.284251 1.08862 0.00462557 0.0617764 0.16116 0.333064 0.120453 0.000482265 0.00330005
959.066 0.376934 1.10658 0.00457648 0.0610447 0.159859 0.330558 0.119294 0.000482995 0.00327498
961.368 0.454042 1.12472 0.00452821 0.0603243 0.157967 0.32808 0.118126 0.000483723 0.00325022
963.67 0.473935 1.14304 0.00448074 0.0596152 0.156103 0.32563 0.116976 0.000484452 0.00322577
965.972 0.502778 1.16153 0.00443406 0.0589169 0.154269 0.323207 0.115846 0.000485174 0.00320161
968.274 0.661434 1.1802 0.00438815 0.0582293 0.152462 0.32081 0.114743 0.000485893 0.00317775
970.575 0.68028 1.19904 0.004343 0.0575521 0.150683 0.31844 0.113655 0.00048661 0.00315417
972.877 0.616432 1.21806 0.00429858 0.0568851 0.14893 0.316096 0.112583 0.000487326 0.00313088
975.179 0.586649 1.23726 0.00425488 0.0562281 0.147204 0.313777 0.111527 0.000488037 0.00310787
977.481 0.627307 1.25662 0.0042119 0.0555809 0.145504 0.311484 0.110485 0.000488749 0.00308514
979.783 0.611938 1.27617 0.0041696 0.0549432 0.143828 0.309215 0.109459 0.000489453 0.00306267
982.085 0.690178 1.29589 0.00412798 0.0543149 0.142178 0.306971 0.108447 0.000490159 0.00304047
984.387 0.718299 1.31578 0.00408702 0.0536957 0.140557 0.304751 0.10745 0.000490859 0.00301854
986.689 0.742873 1.33585 0.00404672 0.0530854 0.13896 0.302555 0.10647 0.000491558 0.00299686
988.991 0.748928 1.35609 0.00400705 0.0524839 0.137386 0.300383 0.105504 0.000492256 0.00297544
991.293 0.752831 1.3765 0.00399917 0.0519463 0.135922 0.298271 0.104571 0.000547953 0.00295427
993.595 0.747282 1.39709 0.00399262 0.0514183 0.134484 0.296187 0.103631 0.000604879 0.00293335
995.897 0.749142 1.41785 0.00398639 0.050898 0.133067 0.294127 0.102705 0.000661476 0.00291266
998.198 0.73881 1.43878 0.00398047 0.0503851 0.13167 0.292087 0.101791 0.000717742 0.00289222
1000.5 0.739874 1.45988 0.00397486 0.0498795 0.130293 0.29007 0.10089 0.000773683 0.00287202
1002.8 0.733161 1.48115 0.00396954 0.049381 0.128936 0.288073 0.100001 0.0008293 0.00285204
1005.1 0.684949 1.5026 0.00396452 0.0488896 0.127597 0.286098 0.0991249 0.000884598 0.00283229
1007.41 0.727254 1.52422 0.00395979 0.048405 0.126278 0.284143 0.0982603 0.00093958 0.00281277
1009.71 0.719309 1.546 0.00395533 0.0479272 0.124977 0.282208 0.0974121 0.000994248 0.00279347
1012.01 0.718758 1.56796 0.00395115 0.0474559 0.123697 0.280294 0.0965757 0.00104861 0.00277439
1014.31 0.716778 1.59008 0.00394722 0.0469911 0.122441 0.278399 0.0957505 0.00110266 0.00275552
1016.61 0.706428 1.61238 0.00394357 0.0465326 0.121201 0.276524 0.0949288 0.0011564 0.00273687
1018.92 0.690923 1.63484 0.00388953 0.0459927 0.119848 0.274647 0.0940605 0.00111766 0.00271842
1021.22 0.699127 1.65746 0.00383107 0.0454508 0.118498 0.272787 0.0932003 0.00106993 0.00270018
1023.52 0.692742 1.68026 0.00377328 0.0449158 0.117166 0.270944 0.0923514 0.00102249 0.00268214
1025.82 0.696569 1.70322 0.00371616 0.0443874 0.115851 0.26912 0.0915135 0.000975329 0.0026643
1028.12 0.692916 1.72635 0.0036597 0.0438657 0.114553 0.267315 0.0906865 0.000928452 0.00264666
1030.43 0.689193 1.74964 0.00360388 0.0433505 0.113271 0.265527 0.0898702 0.000881856 0.00262921
1032.73 0.679332 1.77309 0.0035487 0.0428416 0.112006 0.263756 0.0890738 0.000835536 0.00261196
1035.03 0.682331 1.79671 0.00349385 0.042339 0.110757 0.262004 0.088305 0.000789492 0.00259457
1037.33 0.673894 1.8205 0.00343957 0.0418424 0.109524 0.260268 0.0875457 0.000743719 0.00257733
1039.63 0.67341 1.84444 0.00338589 0.041352 0.108306 0.258549 0.0867957 0.000698217 0.00256028
1041.93 0.671984 1.86855 0.00333282 0.0408674 0.107103 0.256847 0.0860596 0.000652981 0.00254341
1044.24 0.667428 1.89281 0.00328034 0.0403886 0.105915 0.255161 0.0853559 0.00060801 0.00252673
1046.54 0.65242 1.91724 0.00322844 0.0399155 0.104741 0.253492 0.0846606 0.000563303 0.00251023
1048.84 0.659562 1.94182 0.0031771 0.039448 0.103582 0.251839 0.0839735 0.000518855 0.0024939
1051.14 0.654635 1.96657 0.00314393 0.0390534 0.102499 0.250208 0.0833037 0.000507247 0.00247775
1053.44 0.647976 1.99147 0.00311762 0.0386791 0.101471 0.248592 0.0826436 0.000507793 0.00246177
1055.75 0.646932 2.01652 0.00309168 0.0383092 0.100455 0.246991 0.0819915 0.000508339 0.00244597
1058.05 0.63724 2.04174 0.0030661 0.0379437 0.0994521 0.245405 0.0813557 0.000508882 0.00243033
1060.35 0.630722 2.0671 0.00304087 0.0375825 0.0984612 0.243835 0.0807297 0.000509422 0.00241485
1062.65 0.625962 2.09263 0.00301597 0.0372255 0.0974824 0.24228 0.0801109 0.000509961 0.00239954
1064.95 0.62926 2.1183 0.00299142 0.0368726 0.0965155 0.24074 0.0794993 0.000510497 0.00238439
1067.26 0.620095 2.14413 0.0029672 0.0365238 0.0955603 0.239214 0.0789006 0.000511031 0.0023694
1069.56 0.596543 2.17011 0.0029433 0.036179 0.0946164 0.237703 0.0783438 0.000511563 0.00235456
1071.86 0.615535 2.19624 0.00291973 0.0358381 0.0936839 0.236207 0.0777931 0.000512093 0.00233988
1074.16 0.616878 2.22252 0.00289647 0.0355011 0.0927624 0.234724 0.0772483 0.00051262 0.00232535
1076.46 0.609901 2.24894 0.00287351 0.035168 0.0918519 0.233256 0.0767094 0.000513147 0.00231097
1078.77 0.604381 2.27552 0.00285087 0.0348385 0.0909597 0.231801 0.0761763 0.000513671 0.00229674
1081.07 0.581409 2.30224 0.00282852 0.0345128 0.0901233 0.23036 0.0756471 0.000514192 0.00228265
1083.37 0.590891 2.32911 0.00280646 0.0341907 0.0892967 0.228933 0.0751174 0.000514712 0.00226871
1085.67 0.566981 2.35612 0.00278469 0.0338721 0.0884796 0.227519 0.0745934 0.000515229 0.00225491
1087.97 0.592471 2.38327 0.00276321 0.033557 0.087672 0.226118 0.0740751 0.000515745 0.00224125
1090.28 0.564708 2.41057 0.00274201 0.0332454 0.0868736 0.22473 0.0735623 0.000516258 0.00222773
1092.58 0.540459 2.43801 0.00272107 0.0329372 0.0860843 0.223355 0.0730413 0.000516769 0.00221434
1094.88 0.522965 2.46559 0.00270057 0.0326327 0.085306 0.222004 0.0725104 0.000517219 0.00220109
1097.18 0.564836 2.49331 0.00268036 0.0323315 0.0845368 0.220667 0.0719863 0.000517654 0.00218797
1099.48 0.49712 2.52117 0.00266041 0.0320335 0.0837763 0.219343 0.0714679 0.000518085 0.00217499
1101.78 0.474883 2.54916 0.00264071 0.0317386 0.0830241 0.218031 0.0709553 0.000518515 0.00216213
1104.09 0.471015 2.57729 0.00262125 0.0314469 0.0822803 0.216731 0.0704482 0.000518942 0.0021494
1106.39 0.431003 2.60556 0.00260204 0.0311583 0.0815447 0.215442 0.0699598 0.000519367 0.00213679
1108.69 0.413668 2.63395 0.00258306 0.0308726 0.0808171 0.214165 0.069483 0.00051979 0.00212431
1110.99 0.332647 2.66249 0.00256432 0.03059 0.0801082 0.212899 0.0690112 0.000520212 0.00211195
1113.29 0.27773 2.69115 0.00254581 0.0303102 0.0794332 0.211645 0.0685442 0.000520631 0.00209972
1115.6 0.220942 2.71994 0.00252753 0.0300334 0.0787655 0.210402 0.0680821 0.000521048 0.0020876
1117.9 0.203497 2.74887 0.00250948 0.0297593 0.0781049 0.20917 0.0676225 0.000521462 0.0020756
1120.2 0.150691 2.77792 0.00249164 0.0294881 0.0774514 0.207949 0.0671451 0.000521875 0.00206372
1122.5 0.105025 2.8071 0.00247402 0.0292197 0.0768048 0.206739 0.0666728 0.000522287 0.00205195
1124.8 0.137306 2.8364 0.00245661 0.0289539 0.076165 0.205539 0.0662054 0.000522695 0.00204029
1127.11 0.151104 2.86583 0.00243973 0.0286908 0.075532 0.20435 0.0657429 0.000523102 0.00202903
1129.41 0.0914986 2.89538 0.00242948 0.0284304 0.0749056 0.203171 0.0652826 0.000523507 0.00202375
1131.71 0.251957 2.92505 0.0024193 0.0281725 0.0742857 0.202003 0.0648066 0.000523911 0.00201849
1134.01 0.0414332 2.95485 0.00240919 0.0279172 0.0736722 0.200845 0.0643358 0.000524311 0.00201325
1136.31 0.17865 2.98476 0.00239912 0.0276643 0.0730647 0.199693 0.0638688 0.000524732 0.00200802
1138.62 0.261893 3.01479 0.00238911 0.0274139 0.0724429 0.19855 0.0634063 0.000525159 0.00200281
1140.92 0.19854 3.04494 0.00237916 0.027166 0.0718167 0.197417 0.0629489 0.000525584 0.00199762
1143.22 0.268274 3.07521 0.00236929 0.0269205 0.0711969 0.196294 0.0625016 0.000526009 0.00199245
1145.52 0.152087 3.10559 0.0023595 0.0266773 0.0705833 0.195181 0.0621396 0.000526432 0.0019873
1147.82 0.233654 3.13608 0.00234977 0.0264365 0.0699761 0.194077 0.0617809 0.000526852 0.00198216
1150.13 0.131869 3.16669 0.00234012 0.026198 0.0693749 0.192983 0.0614254 0.000527271 0.00197704
1152.43 0.243563 3.1974 0.00233053 0.0259618 0.0687798 0.191897 0.0610731 0.000527687 0.00197195
1154.73 0.266896 3.22823 0.00232102 0.0257279 0.0681906 0.190822 0.0607417 0.000528103 0.00196687
1157.03 0.314491 3.25916 0.00231157 0.0254961 0.0676073 0.189755 0.0604276 0.000528517 0.0019618
1159.33 0.320141 3.2902 0.00230219 0.0252665 0.0670297 0.188697 0.060116 0.000528929 0.00195676
1161.63 0.34911 3.32135 0.00229288 0.0250391 0.0664579 0.187649 0.0598067 0.00052934 0.00195174
1163.94 0.406107 3.3526 0.00228364 0.0248138 0.0658824 0.186609 0.0594999 0.000529747 0.00194673
1166.24 0.383293 3.38395 0.00227446 0.0245939 0.0652703 0.185578 0.0591955 0.000530154 0.00194174
1168.54 0.421464 3.41541 0.00226535 0.024383 0.0646641 0.184556 0.0588917 0.00053056 0.00193677
1170.84 0.449953 3.44697 0.00225631 0.0241741 0.0640639 0.183542 0.058543 0.000530964 0.00193182
1173.14 0.439178 3.47862 0.00224733 0.0239672 0.0634695 0.182536 0.0581974 0.000531366 0.00192689
1175.45 0.463283 3.51037 0.0022288 0.0237461 0.0628561 0.181529 0.0578475 0.000513457 0.00192198
1177.75 0.388298 3.54222 0.00220254 0.023514 0.0622283 0.180522 0.0574944 0.000480696 0.00191708
1180.05 0.441413 3.57416 0.00217644 0.0232839 0.0616065 0.179522 0.0571508 0.000448089 0.00191221
1182.35 0.363838 3.6062 0.00215051 0.0230559 0.0609905 0.178531 0.0568103 0.000415637 0.00190735
1184.65 0.411716 3.63833 0.00212474 0.0228298 0.0604155 0.177548 0.0564728 0.000383339 0.00190251
1186.96 0.456696 3.67055 0.00209913 0.0226057 0.0598667 0.176573 0.0561381 0.000351192 0.00189769
1189.26 0.427725 3.70286 0.00207367 0.0223836 0.0593229 0.175606 0.0558064 0.000319198 0.00189289
1191.56 0.461576 3.73526 0.00204837 0.0221633 0.0587842 0.174647 0.0554775 0.000287352 0.00188811
1193.86 0.466884 3.76774 0.00202323 0.0219449 0.0582505 0.173695 0.0551519 0.000255655 0.00188334
1196.16 0.438803 3.80031 0.00199825 0.0217284 0.0577216 0.172752 0.0548946 0.000224107 0.0018786
1198.47 0.401794 3.83297 0.00197341 0.0215138 0.0571976 0.171816 0.0546389 0.000192705 0.00187387
1200 0.44825 3.85478 0.00195694 0.0213717 0.0568509 0.171196 0.0544694 0.000171851 0.00187073